sep=,,,,,,,,,,,,,,,,,,,,,,,,,,,,,,
ACCELEROMETER X (m/s²),ACCELEROMETER Y (m/s²),ACCELEROMETER Z (m/s²),GRAVITY X (m/s²),GRAVITY Y (m/s²),GRAVITY Z (m/s²),LINEAR ACCELERATION X (m/s²),LINEAR ACCELERATION Y (m/s²),LINEAR ACCELERATION Z (m/s²),GYROSCOPE X (rad/s),GYROSCOPE Y (rad/s),GYROSCOPE Z (rad/s),LIGHT (lux),MAGNETIC FIELD X (μT),MAGNETIC FIELD Y (μT),MAGNETIC FIELD Z (μT),ORIENTATION Z (azimuth °),ORIENTATION X (pitch °),ORIENTATION Y (roll °),PROXIMITY (i),SOUND LEVEL (dB),LOCATION Latitude : ,LOCATION Longitude : ,LOCATION Altitude ( m),LOCATION Altitude-google ( m),LOCATION Speed ( Kmh),LOCATION Accuracy ( m),LOCATION ORIENTATION (°),Satellites in range,Time since start in ms ,YYYY-MO-DD HH-MI-SS_SSS
-0.5432,2.0614,5.6437,-0.2864,2.5329,9.4696,0.0595,-0.7153,-2.6442,0.0944,-0.3505,-0.7697,0,0.92,34.26,-14.55,359.28,-14.81,2.06,2,52.721,12.924192,77.68568,0,2881.76449388159,0,137.09677,0,0 / 0,33,2018-08-03 20:47:12:853
-0.9873,1.4149,7.9841,-0.0948,2.7909,9.4007,-0.1862,-0.5915,0.0377,0.0348,-0.0576,0.0771,0,0.47,37.25,-14.79,0.28,-16.51,0.74,2,50.398,12.924192,77.68568,0,2881.76449388159,0,137.09677,0,0 / 0,533,2018-08-03 20:47:13:353
0.4612,1.8854,9.0758,-0.0441,2.658,9.4395,-0.1503,0.2925,3.0282,0.0784,0.5603,-0.2222,0,-5.64,39.36,-13.24,7.95,-15.6,-1.15,2,47.683,12.924192,77.68568,0,2881.76449388159,0,137.09677,0,0 / 0,1032,2018-08-03 20:47:13:852
-1.6038,1.3012,10.8284,0.2945,2.4653,9.4871,-0.1467,0.3053,3.4318,0.283,-1.3338,0.2827,0,-8.52,37.27,-12.08,12.5,-14.56,-1.78,2,49.046,12.924192,77.68568,0,2881.76449388159,0,137.09677,0,0 / 0,1533,2018-08-03 20:47:14:353
0.2445,1.2773,8.9118,-1.1374,2.9068,9.2966,3.3796,-0.6925,3.6259,-0.2454,2.873,-0.0347,0,0.57,35.53,-18.07,358.96,-17.98,0.88,2,51.296,12.924192,77.68568,0,2881.76449388159,0,137.09677,0,0 / 0,2032,2018-08-03 20:47:14:852
-3.6185,3.0633,14.4927,-2.1337,2.6347,9.202,-2.4576,1.6088,0.6358,-0.288,-1.599,-0.0336,0,-8.29,34.39,-17.45,17.58,-15.59,13.05,2,53.563,12.924192,77.68568,0,2881.76449388159,0,137.09677,0,0 / 0,2534,2018-08-03 20:47:15:354
1.4093,5.0565,9.6169,0.813,4.2451,8.8028,0.4582,0.2497,0.3703,0.2904,0.0426,-0.4257,0,-8.26,29.99,-21.37,9.15,-24.9,-5.75,2,53.704,12.924192,77.68568,0,2881.76449388159,0,137.09677,0,0 / 0,3033,2018-08-03 20:47:15:853
-0.5049,5.2768,10.5662,0.7338,4.3485,8.7591,-0.1896,1.3902,-0.2417,-0.402,0.4591,-0.1242,0,-14.57,26.53,-24.65,17.97,-26.98,-7.24,2,54.715,12.924192,77.68568,0,2881.76449388159,0,137.09677,0,0 / 0,3532,2018-08-03 20:47:16:352
1.3818,4.5693,8.9908,1.2307,4.1294,8.8093,0.176,0.0552,-0.3217,0.153,-0.3388,-0.2595,0,-11.5,27.93,-21.39,14.82,-24.47,-7.41,2,57.348,12.924192,77.68568,0,2881.76449388159,0,137.09677,0,0 / 0,4032,2018-08-03 20:47:16:852
4.5146,2.7509,10.5327,5.1975,1.5281,8.1744,-4.3861,1.5087,-2.7973,-1.7261,-0.7468,1.1264,0,-20.1,31.52,-3.56,23.74,-13.39,-30.99,2,59.345,12.924192,77.68568,0,2881.76449388159,0,137.09677,0,0 / 0,4532,2018-08-03 20:47:17:352
3.6096,-0.4621,1.2552,7.4283,2.0875,6.0526,-3.6973,-1.0854,-6.7359,-0.3338,-1.2645,-0.4438,0,-9.24,35.09,-7.39,1.3,-11.97,-47.94,2,59.684,12.924192,77.68568,0,2881.76449388159,0,137.09677,0,0 / 0,5032,2018-08-03 20:47:17:852
11.8935,-3.6823,-0.7655,5.7295,-7.4515,-2.7962,6.1481,4.2933,-0.3738,-0.3296,0.6199,1.1179,0,24.14,26.94,-1.24,13.51,45.58,-112.86,2,54.22,12.924192,77.68568,0,2881.76449388159,0,137.09677,0,0 / 0,5533,2018-08-03 20:47:18:353
5.7045,-6.7505,-1.667,9.7238,-0.4927,-1.1731,-3.6565,-6.6667,-0.5631,-0.3082,1.5851,-2.9354,0,-1.62,40.56,-0.84,358.27,2.88,-96.88,2,51.222,12.924192,77.68568,0,2881.76449388159,0,137.09677,0,0 / 0,6032,2018-08-03 20:47:18:852
11.6517,-4.9956,-6.095,4.8503,-8.463,-1.0115,4.8244,4.5133,-10.4059,1.2055,-0.1833,1.8476,0,13.51,20.72,-28.46,319.1,55.85,-102.43,2,52.708,12.924192,77.68568,0,2881.76449388159,0,137.09677,0,0 / 0,6533,2018-08-03 20:47:19:353
5.5381,-6.1532,1.3784,1.9674,-8.4504,4.5706,3.1733,4.0161,-5.0794,0.6569,1.9696,-1.4302,0,30.71,2.25,-22.4,260,62,-22.5,0,58.179,12.924192,77.68568,0,2881.76449388159,0,137.09677,0,0 / 0,7033,2018-08-03 20:47:19:853
2.0797,-2.8264,-0.27,7.4436,-6.2436,-1.334,-4.0812,0.9513,2.5742,-0.5298,-0.6914,-0.4459,0,12.84,30.58,-14.69,338.59,40.52,-97.97,0,54.135,12.924192,77.68568,0,2881.76449388159,0,137.09677,0,0 / 0,7533,2018-08-03 20:47:20:353
2.9536,-26.2848,4.862,2.0982,-9.4522,1.5569,-3.6314,-4.4151,3.6602,2.7267,-0.456,2.3089,0,31.01,12.71,-67.1,261.33,74.55,-53.42,0,59.762,12.924192,77.68568,0,2881.76449388159,0,137.09677,0,0 / 0,8032,2018-08-03 20:47:20:852
-1.3105,-1.3803,2.8257,2.2001,-9.1199,-2.8563,-2.3303,2.2341,4.606,-1.1764,-0.7788,-0.5162,0,35.58,21.24,-63.54,348.6,70.85,-138.8,0,60.888,12.924192,77.68568,0,2881.76449388159,0,137.09677,0,0 / 0,8533,2018-08-03 20:47:21:353
-2.8691,-8.1882,0.2963,0.2881,-9.7976,0.3081,3.8489,-7.228,2.2701,2.1301,0.8085,-0.48,0,31.71,11.6,-71.96,20.07,86.77,-176.25,0,55.713,12.924192,77.68568,0,2881.76449388159,0,137.09677,0,0 / 0,9032,2018-08-03 20:47:21:852
1.2717,-6.7002,2.2368,1.4932,-9.4444,-2.1782,0.4153,-4.7825,2.9642,-1.6164,-1.3487,-0.9391,0,39.62,21.29,-67.4,356.53,74.38,-145.57,0,50.218,12.924192,77.68568,0,2881.76449388159,0,137.09677,0,0 / 0,9532,2018-08-03 20:47:22:352
-0.6593,-7.5933,-1.1007,0.2059,-9.7964,-0.3981,6.7053,-3.8154,0.9102,2.0652,1.4263,-0.1018,0,37.04,18.68,-70.38,12.24,78.05,-164.72,0,51.868,12.924192,77.68568,0,2881.76449388159,0,137.09677,0,0 / 0,10033,2018-08-03 20:47:22:853
-0.0966,-7.3658,0.0209,1.0961,-9.5053,-2.1491,-0.9996,-7.2125,3.6814,-1.8262,-0.2823,-0.8443,0,45.03,24.14,-63.24,6.81,79.79,-151.54,0,50.103,12.924192,77.68568,0,2881.76449388159,0,137.09677,0,0 / 0,10535,2018-08-03 20:47:23:355
11.4171,-16.6972,-1.8238,0.3458,-9.739,-1.0965,3.3922,-9.0428,4.9723,1.7349,1.2751,2.2844,0,39.3,22.47,-66.78,0.21,77.17,-150.01,0,51.563,12.924192,77.68568,0,2881.76449388159,0,137.09677,0,0 / 0,11033,2018-08-03 20:47:23:853
5.574,-12.0166,0.6279,0.9885,-9.6694,-1.3022,-3.5346,-5.6646,6.382,-1.6803,1.0098,-1.0723,0,47.52,22.8,-56.78,2.79,80.4,-142.8,0,47.062,12.924192,77.68568,0,2881.76449388159,0,137.09677,0,0 / 0,11533,2018-08-03 20:47:24:353
8.9307,-26.4667,4.4155,0.3699,-9.7173,-1.2681,-8.1031,6.2276,5.6931,1.4697,1.192,2.5518,0,37.78,23.57,-61.74,356.22,75.91,-144.53,0,52.752,12.924192,77.68568,0,2881.76449388159,0,137.09677,0,0 / 0,12032,2018-08-03 20:47:24:852
-3.5036,-17.7782,3.4913,0.2807,-9.7992,-0.2594,0.9365,-5.0271,-2.9371,-3.3251,-1.5138,-1.5261,0,46.69,18.32,-56.27,352.81,87.77,-132.74,0,53.067,12.924192,77.68568,0,2881.76449388159,0,137.09677,0,0 / 0,12533,2018-08-03 20:47:25:353
-7.4145,-4.798,6.939,0.7114,-9.4075,-2.6764,-3.3764,5.7679,8.808,1.2044,0.6913,0.4404,0,34.21,21.47,-59.39,14.84,70.03,-165.58,0,53.152,12.924192,77.68568,0,2881.76449388159,0,137.09677,0,0 / 0,13033,2018-08-03 20:47:25:853
-1.5451,-15.2475,2.5385,-0.0799,-9.7413,1.1275,7.6185,-5.3891,-0.8439,-2.6923,-1.6938,-1.3343,0,45.71,3.51,-60.97,190.9,72.49,26.78,0,55.693,12.924192,77.68568,0,2881.76449388159,0,137.09677,0,0 / 0,13532,2018-08-03 20:47:26:352
-12.5501,2.8239,-0.1275,1.1016,-8.6463,-4.4943,-5.9542,8.4818,7.9828,-0.5905,-0.0576,0.2881,0,25.37,21.23,-58.75,8.86,61.84,-166.23,0,64.535,12.924192,77.68568,0,2881.76449388159,0,137.09677,0,0 / 0,14033,2018-08-03 20:47:26:853
1.6296,-19.6864,-4.0779,-1.3245,-9.4715,2.1694,6.872,-1.7529,-3.3342,-1.0326,-0.733,-0.1284,0,47.29,-2.44,-62.86,185.72,72.2,31.23,0,64.403,12.924192,77.68568,0,2881.76449388159,0,137.09677,0,0 / 0,14533,2018-08-03 20:47:27:353
3.7233,-35.4259,0.0078,1.4754,-8.9883,-3.6337,-3.3322,-1.3667,-2.8495,-0.6566,0.2737,0.0601,0,25.11,19.23,-63.22,357.57,67.8,-155.85,0,59.986,12.924192,77.68568,0,2881.76449388159,0,137.09677,0,0 / 0,15032,2018-08-03 20:47:27:852
4.7815,-14.2204,-0.8146,-1.1138,-9.2885,2.9417,7.659,-2.8166,-3.8184,0.3203,0.687,-0.2126,0,46.53,-5.16,-60.54,195.16,71.11,22.92,0,53.978,12.924192,77.68568,0,2881.76449388159,0,137.09677,0,0 / 0,15533,2018-08-03 20:47:28:353
-8.2441,-18.5024,-13.7254,1.3404,-9.0818,-3.4489,-1.4597,-8.1919,-5.9629,-0.566,-0.4986,-0.3873,0,25.59,17.76,-64.13,0.85,67.83,-158.76,0,61.775,12.924192,77.68568,0,2881.76449388159,0,137.09677,0,0 / 0,16033,2018-08-03 20:47:28:853
4.4619,-10.4711,-2.651,-1.1991,-9.3558,2.6836,3.1406,-0.4525,-5.5369,0.2223,1.3262,0.2796,0,43.79,-7.77,-63.23,195.13,72.68,19.99,0,54.291,12.924192,77.68568,0,2881.76449388159,0,137.09677,0,0 / 0,16532,2018-08-03 20:47:29:352
4.4619,-10.4711,-2.651,-1.1991,-9.3558,2.6836,3.1406,-0.4525,-5.5369,0.2223,1.3262,0.2796,0,43.79,-7.77,-63.23,195.13,72.68,19.99,0,54.291,12.924192,77.68568,0,2881.76449388159,0,137.09677,0,0 / 0,16533,2018-08-03 20:47:29:353
0.0051,-2.5858,2.7946,1.5398,-9.24,-2.9021,-2.827,1.6181,4.8933,-1.7368,-0.8842,-1.0605,0,38.58,14.97,-64.26,2.02,74.58,-150.7,0,55.807,12.924192,77.68568,0,2881.76449388159,0,137.09677,0,0 / 0,16839,2018-08-03 20:47:29:659
-1.1237,-9.5852,0.009,0.316,-9.7996,0.1958,3.8645,-1.2903,-0.2965,2.1397,1.1398,0.1272,0,37.19,4.95,-69.75,3.3,85.9,-155.44,0,55.395,12.924192,77.68568,0,2881.76449388159,0,137.09677,0,0 / 0,17339,2018-08-03 20:47:30:159
0.4959,-8.3103,3.1466,1.7641,-9.4502,-1.9372,1.6212,-2.2508,1.5915,-1.7496,-1.4946,-1.6145,0,41.8,17.08,-66.6,349.98,74.5,-137.68,0,56.653,12.924192,77.68568,0,2881.76449388159,0,137.09677,0,0 / 0,17838,2018-08-03 20:47:30:658
-3.0152,-10.0545,1.8022,0.0019,-9.802,-0.3033,1.4008,2.0918,0.1174,1.8457,1.2516,-0.1306,0,37.16,10.03,-70.54,33.13,84.05,174.13,0,48.575,12.924192,77.68568,0,2881.76449388159,0,137.09677,0,0 / 0,18338,2018-08-03 20:47:31:158
5.3909,-16.9306,-1.0553,0.4423,-9.776,-0.6356,-0.9907,-5.8684,3.6422,-2.5059,-0.1279,-0.8347,0,43.64,14.45,-69.91,357.35,85.47,-145.17,0,56.314,12.924192,77.68568,0,2881.76449388159,0,137.09677,0,0 / 0,18839,2018-08-03 20:47:31:659
10.2068,-14.9423,1.6514,0.0215,-9.6277,-1.8648,-7.2965,8.2166,6.217,1.7935,1.5297,1.887,0,35.25,17.82,-70.98,10.86,73.82,-164.88,0,60.729,12.924192,77.68568,0,2881.76449388159,0,137.09677,0,0 / 0,19339,2018-08-03 20:47:32:159
-2.6477,-15.3577,4.0276,-0.0942,-9.7719,0.8192,7.0409,-5.3723,-1.3271,-2.8553,-1.4765,-1.2395,0,43.24,6.08,-69.17,190.43,77.89,21.89,0,58.214,12.924192,77.68568,0,2881.76449388159,0,137.09677,0,0 / 0,19839,2018-08-03 20:47:32:659
-1.2135,-16.5392,3.0508,1.1161,-9.2018,-3.2018,0.2646,-5.5933,3.1464,1.3088,0.9651,0.3435,0,27.87,18.1,-67.39,3.38,69.77,-160.78,0,63.007,12.924192,77.68568,0,2881.76449388159,0,137.09677,0,0 / 0,20339,2018-08-03 20:47:33:159
-8.1998,-12.2225,-5.7634,-0.5229,-9.6153,1.8557,6.1692,-5.8004,-1.8314,-1.3501,-1.4414,-0.692,0,41.49,-0.86,-64.86,189.39,74.82,23.14,0,59.167,12.924192,77.68568,0,2881.76449388159,0,137.09677,0,0 / 0,20839,2018-08-03 20:47:33:659
5.3562,5.1235,11.3946,1.379,-8.9196,-3.8353,0.071,-6.8036,-5.3079,-1.545,-1.549,0.0164,0,19.46,19.56,-62.59,350.13,68.79,-152.92,0,64.042,12.924192,77.68568,0,2881.76449388159,0,137.09677,0,0 / 0,21339,2018-08-03 20:47:34:159
1.7732,-12.1674,-1.637,-0.8645,-9.3664,2.7736,4.3316,-1.6873,-4.1762,0.0731,0.6711,0.0452,0,41.73,-3.76,-69.05,198.85,73.18,12.96,0,60.243,12.924192,77.68568,0,2881.76449388159,0,137.09677,0,0 / 0,21839,2018-08-03 20:47:34:659
4.8809,-22.4301,-10.3639,1.3625,-9.2632,-2.9167,-3.2901,6.1895,1.3791,0.3607,-0.2397,0.5096,0,25.66,20.44,-64.09,357.18,70.84,-154.96,0,59.242,12.924192,77.68568,0,2881.76449388159,0,137.09677,0,0 / 0,22338,2018-08-03 20:47:35:158
4.2943,-11.1044,-3.2591,-0.4848,-9.4404,2.6105,-0.5682,1.2873,-3.9729,1.3291,1.0013,0.8303,0,46.72,3.32,-66.88,214.16,77.17,1.82,0,53.818,12.924192,77.68568,0,2881.76449388159,0,137.09677,0,0 / 0,22838,2018-08-03 20:47:35:658
-1.04,-2.4421,-1.0253,1.5115,-9.1473,-3.1956,-1.8642,5.8695,1.1095,0.5866,-2.0635,-0.2616,0,33.35,23.64,-63.19,2.21,68.87,-154.69,0,55.763,12.924192,77.68568,0,2881.76449388159,0,137.09677,0,0 / 0,23339,2018-08-03 20:47:36:159
-1.8348,-8.4815,-0.9858,0.1017,-9.7114,1.3595,1.7255,1.2951,-1.367,1.2406,1.2719,0.0995,0,46.36,8.97,-65.89,220,82.01,-4.28,0,59.189,12.924192,77.68568,0,2881.76449388159,0,137.09677,0,0 / 0,23839,2018-08-03 20:47:36:659
-1.8672,-2.8025,1.4263,1.8031,-9.253,-2.702,-1.77,0.1195,5.0262,-1.1136,-0.9673,-0.9753,0,39.04,22.88,-57.33,359.42,77.06,-145.01,0,53.317,12.924192,77.68568,0,2881.76449388159,0,137.09677,0,0 / 0,24339,2018-08-03 20:47:37:159
-1.6313,-9.4667,-0.185,0.4077,-9.7863,0.4826,-1.498,0.9155,-1.1118,1.7797,0.3834,-0.1125,0,35.48,11.74,-65.78,324.6,87.46,-116.45,0,55.84,12.924192,77.68568,0,2881.76449388159,0,137.09677,0,0 / 0,24838,2018-08-03 20:47:37:658
0.8527,-8.5414,-0.2819,1.1287,-9.5998,-1.6555,-2.322,-6.5814,4.0068,-1.5024,1.3891,-1.0392,0,40.99,17.84,-59.79,4.38,81.8,-150.15,0,53.29,12.924192,77.68568,0,2881.76449388159,0,137.09677,0,0 / 0,25338,2018-08-03 20:47:38:158
6.6873,-9.0549,-2.6498,0.3068,-9.667,-1.6203,-1.7209,-5.1989,6.212,1.5847,0.9246,1.7145,0,30.44,15.06,-65.39,13.76,80.32,-169.28,0,49.863,12.924192,77.68568,0,2881.76449388159,0,137.09677,0,0 / 0,25838,2018-08-03 20:47:38:658
-2.7099,-18.2965,4.7519,0.8355,-9.6984,-1.1889,-1.4019,-6.3733,-1.3709,-2.981,0.4964,-0.7175,0,40.94,11.08,-64.93,307.54,86.65,-94.97,0,49.345,12.924192,77.68568,0,2881.76449388159,0,137.09677,0,0 / 0,26339,2018-08-03 20:47:39:159
8.8888,-29.3841,3.5895,0.6246,-9.1323,-3.5188,-7.1534,5.9156,6.3584,2.3219,1.4253,1.2841,0,33.71,18.32,-65.94,16.81,68.63,-169.93,0,49.409,12.924192,77.68568,0,2881.76449388159,0,137.09677,0,0 / 0,26839,2018-08-03 20:47:39:659
0.3642,-17.2287,6.5224,0.0009,-9.7443,1.1037,6.117,-4.6867,-1.6182,-2.3056,-1.272,-0.9498,0,45.36,5.42,-66.84,199.42,77.81,15.12,0,49.6,12.924192,77.68568,0,2881.76449388159,0,137.09677,0,0 / 0,27339,2018-08-03 20:47:40:159
4.9551,-34.1174,-0.0808,1.1914,-8.9986,-3.7116,-1.805,-6.0494,-3.0744,-0.2145,0.866,0.1453,0,28.94,23.67,-62.86,6.56,66.58,-162.2,0,55.153,12.924192,77.68568,0,2881.76449388159,0,137.09677,0,0 / 0,27839,2018-08-03 20:47:40:659
5.0581,-12.1004,0.1251,-1.1723,-9.3953,2.5545,5.6277,-2.1808,-3.1437,-0.0973,-0.3228,0.1847,0,51.83,2.02,-63.69,194.75,72.79,25.08,0,52.515,12.924192,77.68568,0,2881.76449388159,0,137.09677,0,0 / 0,28339,2018-08-03 20:47:41:159
-6.3347,-10.3478,-11.0355,1.1405,-9.2013,-3.1946,2.455,-4.4188,-6.0482,-0.0462,-0.1076,0.1965,0,33.19,23.6,-61.12,6.94,70.15,-158.94,0,58.316,12.924192,77.68568,0,2881.76449388159,0,137.09677,0,0 / 0,28838,2018-08-03 20:47:41:658
1.3698,-10.0964,-0.0545,-0.7322,-9.5607,2.0558,0.151,0.8419,-2.2515,1.2726,0.4143,0.9549,0,43.24,5.77,-68.59,200.48,80.32,11.97,0,55.314,12.924192,77.68568,0,2881.76449388159,0,137.09677,0,0 / 0,29338,2018-08-03 20:47:42:158
-1.4769,-5.8754,0.5453,2.1192,-9.2064,-2.631,-3.5426,4.5721,3.6238,0.2116,-1.2485,-0.6131,0,30.04,24.84,-62.26,349.14,72.08,-142.63,0,54.461,12.924192,77.68568,0,2881.76449388159,0,137.09677,0,0 / 0,29839,2018-08-03 20:47:42:659
-2.1545,-8.4408,0.7356,0.5639,-9.7663,0.6872,7.0777,-1.3662,-1.1152,1.6476,1.3028,-0.7974,0,35.81,13.71,-74.6,245.9,84.8,-39.37,0,58.469,12.924192,77.68568,0,2881.76449388159,0,137.09677,0,0 / 0,30339,2018-08-03 20:47:43:159
-1.1597,-5.4433,0.0269,0.7723,-9.1234,-3.5124,2.1317,6.0355,4.56,-0.7578,-0.3175,-0.2563,0,48.44,31.84,-61.35,24.38,70.13,-168.23,0,54.677,12.924192,77.68568,0,2881.76449388159,0,137.09677,0,0 / 0,30839,2018-08-03 20:47:43:659
4.942,-9.5745,0.9331,-0.2183,-9.7189,1.2909,3.8431,1.0921,-0.9789,1.2374,1.2793,0.4564,0,65.81,14.67,-60.29,225.08,85.09,3.34,0,56.303,12.924192,77.68568,0,2881.76449388159,0,137.09677,0,0 / 0,31339,2018-08-03 20:47:44:159
-1.0005,-2.9844,2.1111,1.6464,-9.3107,-2.602,-1.2069,4.7574,4.9169,-0.8036,-0.7596,-0.7303,0,60.11,28.82,-49.66,16.92,73.83,-147.82,0,57.558,12.924192,77.68568,0,2881.76449388159,0,137.09677,0,0 / 0,31839,2018-08-03 20:47:44:659
-0.9969,-8.7832,3.3022,-0.0546,-9.7924,0.5253,6.5375,-4.6744,0.9924,1.8969,0.4101,-0.4086,0,59.66,15.27,-58.17,220.44,86.91,5.94,0,48.491,12.924192,77.68568,0,2881.76449388159,0,137.09677,0,0 / 0,32339,2018-08-03 20:47:45:159
-0.8388,-7.4352,2.7719,1.8372,-9.3436,-2.3437,-1.3835,0.345,3.9199,-1.5226,-1.24,-0.7026,0,52.55,23.8,-49.12,2.99,75.64,-135.9,0,62.432,12.924192,77.68568,0,2881.76449388159,0,137.09677,0,0 / 0,32839,2018-08-03 20:47:45:659
5.1766,-13.07,2.4331,-0.734,-9.671,-1.4504,-3.9073,5.0562,6.4409,1.6412,1.3241,1.2457,0,43.64,18.47,-62.45,41.72,77.28,172.34,0,53.926,12.924192,77.68568,0,2881.76449388159,0,137.09677,0,0 / 0,33338,2018-08-03 20:47:46:158
2.5669,-11.4384,-1.7939,0.468,-9.6591,-1.6287,-1.9388,-7.4951,6.2832,-2.4004,1.0024,-1.2075,0,48.34,20.06,-54.18,41.79,85.1,179.04,0,54.183,12.924192,77.68568,0,2881.76449388159,0,137.09677,0,0 / 0,33839,2018-08-03 20:47:46:659
5.082,-19.7821,0.9511,-0.3477,-9.5078,-2.3773,-4.629,5.674,6.4702,1.9352,1.5446,0.7547,0,36.24,24.1,-57.29,27.78,65.05,-177.35,0,54.859,12.924192,77.68568,0,2881.76449388159,0,137.09677,0,0 / 0,34339,2018-08-03 20:47:47:159
-2.905,-17.1485,2.572,-0.2589,-9.7937,-0.432,-0.1773,-5.7842,-3.601,-3.405,-0.9886,-1.166,0,46.39,14.81,-59.58,179.2,83.18,38.25,0,53.742,12.924192,77.68568,0,2881.76449388159,0,137.09677,0,0 / 0,34839,2018-08-03 20:47:47:659
-5.6847,-8.7604,4.3832,0.5592,-8.8604,-4.1655,-3.1083,-10.0297,-2.6863,-0.0281,0.5091,0.1517,0,26.41,25.9,-54.24,16.24,64.42,-172.04,0,54.222,12.924192,77.68568,0,2881.76449388159,0,137.09677,0,0 / 0,35339,2018-08-03 20:47:48:159
6.8286,-14.3006,1.8573,-1.4461,-9.4601,2.1416,5.0416,-2.4603,-4.046,-0.7961,-0.5838,0.1485,0,51.24,5.26,-61.26,186.19,74.72,34.03,0,56.453,12.924192,77.68568,0,2881.76449388159,0,137.09677,0,0 / 0,35839,2018-08-03 20:47:48:659
-3.0954,-6.7924,-4.9446,0.4668,-9.0147,-3.8325,-2.1207,-0.7346,-1.8034,-0.1367,-1.6789,-0.1082,0,30.04,23.53,-56.38,16.16,67.26,-169.13,0,57.895,12.924192,77.68568,0,2881.76449388159,0,137.09677,0,0 / 0,36338,2018-08-03 20:47:49:158
2.434,-12.815,-1.1857,-1.2449,-9.3901,2.5389,1.0266,0.1662,-4.5288,1.2311,1.0482,0.989,0,51.37,3.44,-59.82,195.02,73.24,26.12,0,55.259,12.924192,77.68568,0,2881.76449388159,0,137.09677,0,0 / 0,36839,2018-08-03 20:47:49:659
4.7767,-18.9968,-19.1626,0.9869,-9.3035,-2.9397,-4.4786,8.1776,4.4319,0.9647,-2.6089,0.0814,0,30.54,22.66,-57.87,4.29,69.22,-156.42,0,49.205,12.924192,77.68568,0,2881.76449388159,0,137.09677,0,0 / 0,37338,2018-08-03 20:47:50:158
-3.8448,-8.6276,-0.908,-0.4805,-9.6146,1.8707,2.2478,1.126,-3.2824,1.4899,1.9579,0.1752,0,43.83,6.24,-62.38,201.67,78.64,14.41,0,48.63,12.924192,77.68568,0,2881.76449388159,0,137.09677,0,0 / 0,37839,2018-08-03 20:47:50:659
-0.4941,-3.255,1.916,1.3968,-9.1332,-3.2871,-4.3153,3.6683,4.9948,-1.316,-1.1548,-0.6717,0,32.09,19.86,-52.91,7.72,68.64,-156.98,0,49.755,12.924192,77.68568,0,2881.76449388159,0,137.09677,0,0 / 0,38338,2018-08-03 20:47:51:158
2.8195,-9.5984,-1.4383,-0.3599,-9.7537,0.9522,-0.0209,1.9828,-1.5116,1.54,0.8138,0.3658,0,33.08,7.22,-62.6,180.93,87.46,26.73,0,47.422,12.924192,77.68568,0,2881.76449388159,0,137.09677,0,0 / 0,38839,2018-08-03 20:47:51:659
-2.8212,-8.3067,-1.6011,1.3942,-9.3907,-2.4578,-3.3553,1.0433,3.085,-1.2915,-1.5596,-1.2448,0,32.07,14.3,-58.03,358.9,76.84,-149.99,0,55.535,12.924192,77.68568,0,2881.76449388159,0,137.09677,0,0 / 0,39339,2018-08-03 20:47:52:159
-12.2077,-8.302,1.9064,0.0646,-9.3256,-3.033,-0.517,4.8432,8.9958,0.5994,0.6317,-0.4288,0,16.33,14.15,-59.42,14.95,65.86,-179.92,0,49.812,12.924192,77.68568,0,2881.76449388159,0,137.09677,0,0 / 0,39839,2018-08-03 20:47:52:659
-8.3542,-14.5005,-9.4709,-1.1421,-9.4383,2.4049,4.644,-1.996,-2.5378,-0.6939,-0.8768,-0.5247,0,41.45,-1.72,-66.65,186.25,74.25,25.4,0,45.781,12.924192,77.68568,0,2881.76449388159,0,137.09677,0,0 / 0,40339,2018-08-03 20:47:53:159
0.4002,-1.5671,-3.9546,1.0126,-9.1776,-3.304,0.6679,0.4198,-0.4478,-0.0121,-1.8802,-0.2542,0,24.62,14.14,-62.13,2.21,69.64,-160.28,0,55.706,12.924192,77.68568,0,2881.76449388159,0,137.09677,0,0 / 0,40839,2018-08-03 20:47:53:659
0.1691,-10.4723,-2.6211,-1.2518,-9.3577,2.6529,3.4998,-1.3289,-3.8229,0.1296,0.7637,-0.1178,0,46.64,-7.54,-60.88,192.66,72.25,25.14,0,49.979,12.924192,77.68568,0,2881.76449388159,0,137.09677,0,0 / 0,41339,2018-08-03 20:47:54:159
3.0769,-13.5943,-3.5261,0.861,-9.2729,-3.0729,0.9014,0.8307,-5.8893,0.1445,-1.0344,0.4244,0,33.07,13.16,-61.01,7.77,70.97,-159.41,0,50.297,12.924192,77.68568,0,2881.76449388159,0,137.09677,0,0 / 0,41840,2018-08-03 20:47:54:660
2.8758,-11.7544,-2.7719,-0.6719,-9.519,2.2598,2.8145,0.2396,-2.9412,1.5197,1.0343,0.5704,0,43.3,-5.96,-64.08,197.5,76.09,16.56,0,48.561,12.924192,77.68568,0,2881.76449388159,0,137.09677,0,0 / 0,42339,2018-08-03 20:47:55:159
3.0051,-9.6894,-13.0478,1.3925,-9.2269,-3.016,-4.147,6.6739,4.4343,0.9861,-1.8131,0.1549,0,26.37,13.84,-62.73,354.76,67.75,-152.32,0,49.966,12.924192,77.68568,0,2881.76449388159,0,137.09677,0,0 / 0,42839,2018-08-03 20:47:55:659
-3.6197,-7.1767,-2.8509,-0.1071,-9.6457,1.7663,2.2758,1.2699,-0.0427,1.9554,1.6309,-0.1444,0,36.72,-0.16,-68.07,202.74,83.97,5.93,0,52.583,12.924192,77.68568,0,2881.76449388159,0,137.09677,0,0 / 0,43339,2018-08-03 20:47:56:159
-2.5303,-2.0447,0.8996,1.9648,-9.1128,-3.0441,-3.0132,4.5285,5.6558,-0.8206,-1.3881,-1.0744,0,32.1,16.78,-62.71,353.94,70.8,-146.87,0,49.303,12.924192,77.68568,0,2881.76449388159,0,137.09677,0,0 / 0,43839,2018-08-03 20:47:56:659
2.4149,-8.6383,-0.1311,0.1446,-9.7662,0.8775,0.487,1.4023,-0.9011,1.9735,0.9438,0.2551,0,35.51,7.32,-68.52,5.54,84.97,-158.01,0,51.387,12.924192,77.68568,0,2881.76449388159,0,137.09677,0,0 / 0,44339,2018-08-03 20:47:57:159
-1.6217,-7.8554,1.394,1.2191,-9.433,-2.3879,0.5724,-0.4127,3.9535,-1.6185,-0.8235,-1.2129,0,39.24,18.14,-59.18,6.22,74.13,-152.95,0,48.936,12.924192,77.68568,0,2881.76449388159,0,137.09677,0,0 / 0,44840,2018-08-03 20:47:57:660
-1.277,-9.3398,-0.1383,0.1428,-9.7924,-0.5096,1.5353,-9.4669,4.9337,2.0215,1.8727,-0.089,0,35.84,12.02,-65.18,28.02,81.94,-179.42,0,53.592,12.924192,77.68568,0,2881.76449388159,0,137.09677,0,0 / 0,45339,2018-08-03 20:47:58:159
8.1322,-14.5496,-1.1857,0.6487,-9.6652,-1.5275,-2.3077,-6.3794,6.8349,-1.5567,0.637,-0.6494,0,44.6,13.93,-59.59,13.62,80.26,-156.99,0,53.732,12.924192,77.68568,0,2881.76449388159,0,137.09677,0,0 / 0,45839,2018-08-03 20:47:58:659
6.2456,-30.2484,5.767,0.7678,-9.5141,-2.25,-5.5982,6.0178,6.2425,1.7541,1.4263,1.8039,0,31.13,13.82,-63.65,1.64,70.19,-155.8,0,57.449,12.924192,77.68568,0,2881.76449388159,0,137.09677,0,0 / 0,46339,2018-08-03 20:47:59:159
-0.4989,-15.208,5.0009,0.0396,-9.7852,0.6473,-2.8669,-4.9021,-5.0199,-3.1163,-1.0067,-0.8113,0,41.2,7.47,-63.23,216.83,86.21,-3.5,0,55.514,12.924192,77.68568,0,2881.76449388159,0,137.09677,0,0 / 0,46840,2018-08-03 20:47:59:660
3.6072,-27.0713,7.5627,1.1348,-9.3738,-2.6486,-0.1132,-7.7808,3.1187,-0.0174,1.5009,0.3062,0,28.19,15.91,-62.71,2.37,72.22,-158.46,0,57.468,12.924192,77.68568,0,2881.76449388159,0,137.09677,0,0 / 0,47340,2018-08-03 20:48:00:160
6.4886,-17.5807,-3.2711,-0.8937,-9.592,1.8345,3.7585,-1.7951,-3.9442,-1.5663,-0.5987,-0.1412,0,44.91,-5.7,-62.61,193.73,72.82,22.08,0,47.732,12.924192,77.68568,0,2881.76449388159,0,137.09677,0,0 / 0,47839,2018-08-03 20:48:00:659
0.4756,-13.4974,-3.0257,1.2818,-9.2045,-3.1312,3.173,-8.012,-6.9009,-0.2752,-1.0685,-0.6834,0,21.15,10.3,-62.47,356.42,69.82,-157.74,0,58.833,12.924192,77.68568,0,2881.76449388159,0,137.09677,0,0 / 0,48339,2018-08-03 20:48:01:159
1.1938,-13.0018,0.4794,-1.0856,-9.3833,2.6354,3.0238,-1.6396,-5.3316,0.414,1.2165,0.3999,0,39.86,-9.24,-62.64,194.35,73.7,18.13,0,51.542,12.924192,77.68568,0,2881.76449388159,0,137.09677,0,0 / 0,48839,2018-08-03 20:48:01:659
3.6527,-22.138,-18.4599,1.3922,-9.3561,-2.5874,0.1288,-3.9083,-7.7936,0.088,0.1086,0.3541,0,21.58,7.35,-64.6,347.39,72.51,-148.87,0,56.127,12.924192,77.68568,0,2881.76449388159,0,137.09677,0,0 / 0,49339,2018-08-03 20:48:02:159
2.6399,-10.5501,-3.6374,-0.0798,-9.5706,2.1372,-0.898,1.6385,-2.2029,1.5443,1.4828,0.2551,0,36.89,-7.07,-65.83,214.22,80.71,-5.08,0,54.343,12.924192,77.68568,0,2881.76449388159,0,137.09677,0,0 / 0,49839,2018-08-03 20:48:02:659
-2.3891,-2.1488,1.3569,1.8619,-9.1125,-3.1091,-3.4767,5.9554,5.7519,0.2052,-1.2059,-0.6898,0,26.38,8.49,-63.72,350.95,68.31,-149.08,0,53.106,12.924192,77.68568,0,2881.76449388159,0,137.09677,0,0 / 0,50339,2018-08-03 20:48:03:159
4.1028,-9.9037,-0.2604,-0.0607,-9.7556,0.9971,2.003,2.0067,-1.5378,1.2428,0.8628,0.3882,0,31.15,-3.72,-66.63,213.72,86.81,-8.94,0,55.931,12.924192,77.68568,0,2881.76449388159,0,137.09677,0,0 / 0,50839,2018-08-03 20:48:03:659
-1.7032,-5.1895,1.9483,1.6278,-9.3341,-2.5289,2.3794,-0.6929,2.2525,-1.2308,-1.0547,-1.0116,0,33.65,9.04,-64.04,355.16,72.14,-147.23,0,52.808,12.924192,77.68568,0,2881.76449388159,0,137.09677,0,0 / 0,51339,2018-08-03 20:48:04:159
-2.2167,-9.1399,0.3262,-0.0192,-9.7846,-0.6564,5.8676,-5.9582,2.1683,2.1046,0.964,0.0122,0,31.84,1.95,-66.82,31.47,81.17,174.23,0,48.904,12.924192,77.68568,0,2881.76449388159,0,137.09677,0,0 / 0,51838,2018-08-03 20:48:04:658
1.0897,-15.9179,3.6111,0.4987,-9.6815,-1.4799,0.5327,-5.3955,5.6608,-2.0766,0.8468,-0.6185,0,38.69,0.7,-67.18,201.32,86.96,8.93,0,49.088,12.924192,77.68568,0,2881.76449388159,0,137.09677,0,0 / 0,52339,2018-08-03 20:48:05:159
-5.9122,-10.7692,5.0392,1.1822,-9.3384,-2.7508,-4.6512,6.3452,6.3596,1.2939,1.2005,2.0703,0,26.7,7,-63.75,359.61,72.22,-156.74,0,55.404,12.924192,77.68568,0,2881.76449388159,0,137.09677,0,0 / 0,52839,2018-08-03 20:48:05:659
-5.8691,-13.3908,-2.6594,-0.437,-9.674,1.5469,3.8593,-2.6637,-2.2995,-1.92,-1.0397,-0.9817,0,43.02,-9.56,-63.26,191.7,75.39,22.6,0,49.366,12.924192,77.68568,0,2881.76449388159,0,137.09677,0,0 / 0,53339,2018-08-03 20:48:06:159
2.6292,-36.8588,-14.6986,1.1282,-9.2891,-2.9343,-3.9266,0.9125,-1.3153,-0.0845,0.6125,0.3925,0,26.8,11.54,-67.21,358.49,71.14,-156.54,0,53.51,12.924192,77.68568,0,2881.76449388159,0,137.09677,0,0 / 0,53839,2018-08-03 20:48:06:659
4.9312,-12.7384,0.3262,-0.8221,-9.3969,2.682,5.618,-1.4335,-2.516,-0.1836,0.0532,0.0676,0,43.32,-11.31,-65.06,199.88,72.63,13.62,0,54.475,12.924192,77.68568,0,2881.76449388159,0,137.09677,0,0 / 0,54339,2018-08-03 20:48:07:159
-2.7243,-7.2198,-4.376,1.3352,-9.3222,-2.7357,2.0829,-3.5219,-6.3563,-0.1612,-0.1076,-0.0997,0,28.93,10.86,-63.69,358.36,71.92,-153.98,0,59.815,12.924192,77.68568,0,2881.76449388159,0,137.09677,0,0 / 0,54839,2018-08-03 20:48:07:659
2.0462,-11.2875,-4.1306,-0.7118,-9.4177,2.6403,1.616,1.1134,-2.8603,1.165,0.9789,0.7025,0,44.33,-6.85,-64.69,204.7,76.47,9.5,0,54.665,12.924192,77.68568,0,2881.76449388159,0,137.09677,0,0 / 0,55339,2018-08-03 20:48:08:159
-1.2758,-2.4972,-0.0868,1.3558,-9.4408,-2.2813,-3.4899,7.5701,3.1465,0.7112,-2.3372,0.3445,0,30.7,11.46,-64.87,349.78,72.33,-144.28,0,53.237,12.924192,77.68568,0,2881.76449388159,0,137.09677,0,0 / 0,55839,2018-08-03 20:48:08:659
-2.9625,-7.8159,-1.4718,-0.1666,-9.7126,1.3443,-0.2755,1.0822,-1.1287,1.5059,1.2506,0.2582,0,40.62,0.73,-69.26,210.21,85.4,0.62,0,51.994,12.924192,77.68568,0,2881.76449388159,0,137.09677,0,0 / 0,56339,2018-08-03 20:48:09:159
-2.5291,-2.9186,0.8829,1.8331,-9.1825,-2.914,-2.2614,4.1794,5.2109,-0.7013,-1.3242,-0.8635,0,41.33,16.61,-58.04,3.17,74.13,-148,0,48.994,12.924192,77.68568,0,2881.76449388159,0,137.09677,0,0 / 0,56839,2018-08-03 20:48:09:659
1.4967,-8.7832,1.0098,0.0732,-9.7764,0.7659,0.2902,1.2341,-0.4029,1.801,0.5475,0.2529,0,43.28,5.96,-63.27,281.79,88.89,-67.4,0,56.444,12.924192,77.68568,0,2881.76449388159,0,137.09677,0,0 / 0,57339,2018-08-03 20:48:10:159
0.0925,-7.2162,3.1406,1.471,-9.5262,-1.805,3.1041,-1.8242,1.5079,-1.1157,-1.207,-1.4153,0,48.36,14.72,-55.76,4.81,80.23,-144.31,0,48.708,12.924192,77.68568,0,2881.76449388159,0,137.09677,0,0 / 0,57839,2018-08-03 20:48:10:659
-0.5324,-8.0482,-0.8266,-0.3355,-9.7287,-1.1877,-4.0216,0.8699,5.178,1.3546,0.4506,0.9698,0,39.73,11.34,-62.27,48.03,82.77,164.23,0,44.937,12.924192,77.68568,0,2881.76449388159,0,137.09677,0,0 / 0,58339,2018-08-03 20:48:11:159
-0.9155,-17.7914,7.674,0.2774,-9.754,-0.9757,-2.6492,-3.2064,-0.3186,-3.3336,-0.0693,-0.9157,0,44.89,6.87,-64.74,206.2,80.04,9.23,0,51.447,12.924192,77.68568,0,2881.76449388159,0,137.09677,0,0 / 0,58839,2018-08-03 20:48:11:659
-0.299,-18.0416,4.6346,1.0524,-9.212,-3.194,0.4192,-3.0215,4.7508,0.2595,0.6391,0.5405,0,35.15,17.93,-61.82,10.91,69.95,-161.76,0,53.43,12.924192,77.68568,0,2881.76449388159,0,137.09677,0,0 / 0,59339,2018-08-03 20:48:12:159
-4.2398,-12.8114,-7.7794,-0.7834,-9.5095,2.2639,6.5213,-3.9311,-1.6197,-0.3274,-0.8853,-0.6163,0,50.54,-0.05,-64.01,192.18,74.18,26.81,0,52.345,12.924192,77.68568,0,2881.76449388159,0,137.09677,0,0 / 0,59838,2018-08-03 20:48:12:658
-6.7406,-10.4998,-6.6074,1.0819,-9.1773,-3.2828,-6.0467,-1.6806,-3.1496,-0.1399,-0.9769,0.0771,0,30.28,19.35,-56.45,9.54,69.36,-161.76,0,52.147,12.924192,77.68568,0,2881.76449388159,0,137.09677,0,0 / 0,60339,2018-08-03 20:48:13:159
2.4999,-12.3242,1.5939,-1.1189,-9.3808,2.6303,2.1086,-1.2602,-5.1094,0.3575,1.3656,0.3509,0,46.99,-0.66,-62.23,199.42,73.54,18.41,0,51.112,12.924192,77.68568,0,2881.76449388159,0,137.09677,0,0 / 0,60839,2018-08-03 20:48:13:659
6.5066,-15.4247,-13.8738,1.1947,-9.3081,-2.8465,-2.1683,7.1243,4.2606,0.8827,-2.0496,0.059,0,29.07,14.64,-58.9,3.34,71.65,-157.23,0,55.974,12.924192,77.68568,0,2881.76449388159,0,137.09677,0,0 / 0,61339,2018-08-03 20:48:14:159
-1.5787,-8.9017,-2.1243,-0.3697,-9.629,1.8213,2.4135,0.7931,-1.4812,1.7232,1.4093,0.0069,0,38.52,0.03,-63.35,197,82.69,14.89,0,55.201,12.924192,77.68568,0,2881.76449388159,0,137.09677,0,0 / 0,61839,2018-08-03 20:48:14:659
-2.5615,-2.1333,1.4622,1.787,-9.2033,-2.8768,-4.1067,6.7995,4.3022,-0.1133,-1.5969,-1.0616,0,32.76,14.04,-60.4,1.5,72.96,-152.71,0,51.465,12.924192,77.68568,0,2881.76449388159,0,137.09677,0,0 / 0,62339,2018-08-03 20:48:15:159
0.612,-9.8534,1.7855,-0.0104,-9.7725,0.8179,1.0657,2.9926,-1.0573,1.7339,0.5837,-0.1615,0,36.56,0.09,-65.41,209,85.22,0.73,0,54.761,12.924192,77.68568,0,2881.76449388159,0,137.09677,0,0 / 0,62839,2018-08-03 20:48:15:659
-1.3632,-5.1344,3.1885,1.2114,-9.4709,-2.2373,2.8656,-4.7435,3.8742,-1.2659,-1.4765,-1.2928,0,38.43,9.27,-62.59,6.62,78.51,-155.55,0,53.366,12.924192,77.68568,0,2881.76449388159,0,137.09677,0,0 / 0,63339,2018-08-03 20:48:16:159
-1.5403,-8.9065,-0.5752,0.1161,-9.8058,0.0634,6.9634,-2.5883,0.3613,2.3027,1.0056,-0.4938,0,35.01,1.6,-65.66,41.85,85.02,166.1,0,55.911,12.924192,77.68568,0,2881.76449388159,0,137.09677,0,0 / 0,63839,2018-08-03 20:48:16:659
5.8781,-10.944,1.8525,0.6177,-9.6869,-1.3972,-4.7754,-6.5789,4.1784,-1.7538,1.2719,-0.7772,0,42.45,8.41,-65.88,10.35,84.73,-157.94,0,58.076,12.924192,77.68568,0,2881.76449388159,0,137.09677,0,0 / 0,64339,2018-08-03 20:48:17:159
3.8119,-6.8954,-1.0564,-0.1237,-9.6426,-1.782,-0.9851,-6.0809,6.6411,1.6582,1.0631,1.4982,0,32.39,9.08,-65.51,29.61,79.5,176.03,0,45.946,12.924192,77.68568,0,2881.76449388159,0,137.09677,0,0 / 0,64839,2018-08-03 20:48:17:659
-0.9059,-15.0572,2.6426,-0.3135,-9.8006,0.146,0.0341,-4.6666,-0.7241,-3.2143,-1.484,-1.1447,0,46.47,0.61,-65.45,184.93,80.73,30.43,0,51.157,12.924192,77.68568,0,2881.76449388159,0,137.09677,0,0 / 0,65339,2018-08-03 20:48:18:159
-4.3428,-11.0517,4.3796,0.0813,-9.2163,-3.3502,-3.8667,3.1067,7.3059,2.2079,1.7811,1.8913,0,30.1,13.75,-59.51,19.33,64.12,-172.69,0,53.947,12.924192,77.68568,0,2881.76449388159,0,137.09677,0,0 / 0,65838,2018-08-03 20:48:18:658
-6.8998,-14.9123,-7.0851,-1.3356,-9.4857,2.0996,3.0848,-2.462,-4.2487,-1.0827,-0.7734,-0.1125,0,43.01,-3.57,-64.03,183.31,72.55,30.68,0,57.896,12.924192,77.68568,0,2881.76449388159,0,137.09677,0,0 / 0,66339,2018-08-03 20:48:19:159
-4.1668,-3.0658,-5.2164,1.1393,-9.2261,-3.1228,-2.8219,-0.301,-2.1622,0.25,-1.4105,0.1986,0,20.95,14.37,-57.08,355.72,71.42,-155.41,0,60.558,12.924192,77.68568,0,2881.76449388159,0,137.09677,0,0 / 0,66839,2018-08-03 20:48:19:659
2.8255,-10.3322,-0.2245,-1.0568,-9.3293,2.8317,2.9013,-2.0164,-3.756,0.1189,1.0066,0.0601,0,40.18,-3.86,-63.43,194.36,71.87,18.5,0,52.975,12.924192,77.68568,0,2881.76449388159,0,137.09677,0,0 / 0,67339,2018-08-03 20:48:20:159
1.5949,-22.2817,-12.1596,0.6503,-9.3342,-2.9361,-2.4843,6.4524,2.7644,0.6611,-2.2478,0.7887,0,19.51,12.54,-54.74,358.21,70.08,-158.2,0,56.103,12.924192,77.68568,0,2881.76449388159,0,137.09677,0,0 / 0,67839,2018-08-03 20:48:20:659
-0.6533,-8.8299,-1.8573,-0.32,-9.621,1.872,0.7326,0.9799,-2.8044,1.7062,1.4018,-0.1338,0,33.17,-1.7,-63.94,197.8,78.83,9.7,0,54.394,12.924192,77.68568,0,2881.76449388159,0,137.09677,0,0 / 0,68339,2018-08-03 20:48:21:159
-3.8316,-0.4693,0.4507,1.7574,-9.1733,-2.9887,-5.2211,4.9042,5.1645,-0.5735,-0.9737,-0.3042,0,22.09,12.36,-61.55,340.88,73.18,-141.11,0,49.699,12.924192,77.68568,0,2881.76449388159,0,137.09677,0,0 / 0,68838,2018-08-03 20:48:21:658
0.466,-7.968,3.6158,0.0112,-9.7942,0.4929,6.9774,-3.2594,-0.8457,1.8074,1.3954,-0.3553,0,28.09,1.1,-67.7,203.72,87.12,-1.3,0,52.461,12.924192,77.68568,0,2881.76449388159,0,137.09677,0,0 / 0,69339,2018-08-03 20:48:22:159
-2.7782,-7.1264,2.9155,1.4606,-9.5495,-1.6862,3.3204,-3.3788,1.4826,-1.1061,-1.8983,-1.8361,0,33.31,9.97,-65.8,352.11,81.38,-145.48,0,55.978,12.924192,77.68568,0,2881.76449388159,0,137.09677,0,0 / 0,69839,2018-08-03 20:48:22:659
5.8553,-5.8515,-2.827,-0.123,-9.7286,-1.2287,6.4918,-5.0022,1.8908,1.785,1.503,-0.1604,0,29.46,5.88,-68.51,28.43,82.77,174.29,0,51.599,12.924192,77.68568,0,2881.76449388159,0,137.09677,0,0 / 0,70339,2018-08-03 20:48:23:159
1.1543,-17.6405,-1.5042,0.1014,-9.8046,-0.1725,-3.9638,-4.5396,1.4431,-2.9096,-1.0451,-1.0062,0,37.4,4.88,-66.5,358.46,88.83,-149.55,0,55.501,12.924192,77.68568,0,2881.76449388159,0,137.09677,0,0 / 0,70839,2018-08-03 20:48:23:659
-0.8005,-24.1528,0.6279,0.2973,-9.2341,-3.2884,-2.4202,-9.5507,0.9402,1.0414,1.1611,0.777,0,20.05,14.76,-61.5,4.71,68.81,-166.64,0,54.723,12.924192,77.68568,0,2881.76449388159,0,137.09677,0,0 / 0,71339,2018-08-03 20:48:24:159
7.3649,-16.7451,-1.5999,-0.9456,-9.5456,2.0392,2.882,-2.8407,-2.5051,-1.0177,-0.4816,-0.235,0,42.58,-5.92,-65.84,188.52,74.07,24.71,0,53.764,12.924192,77.68568,0,2881.76449388159,0,137.09677,0,0 / 0,71839,2018-08-03 20:48:24:659
3.0098,-22.326,-6.3632,1.1261,-9.0355,-3.6416,-1.5231,-4.0813,-3.0018,-0.6811,-1.4307,-0.432,0,21.01,11.5,-62.75,1.18,71.11,-162.75,0,57.441,12.924192,77.68568,0,2881.76449388159,0,137.09677,0,0 / 0,72338,2018-08-03 20:48:25:158
6.8202,-12.0728,-2.1458,-1.0008,-9.4072,2.5834,4.5764,-1.1889,-4.7322,0.6057,1.2186,0.0867,0,41.26,-8.57,-66.77,190.37,73.59,21.18,0,53.816,12.924192,77.68568,0,2881.76449388159,0,137.09677,0,0 / 0,72840,2018-08-03 20:48:25:660
5.5082,-24.889,-14.027,1.2356,-9.2977,-2.8628,2.0381,-5.8951,-7.1139,-0.1208,-0.2514,0.0697,0,26.48,11.77,-63.66,357.15,72.12,-155.02,0,59.583,12.924192,77.68568,0,2881.76449388159,0,137.09677,0,0 / 0,73339,2018-08-03 20:48:26:159
3.2924,-11.6419,-3.7451,-0.7183,-9.4193,2.6327,0.1214,1.5793,-3.8973,1.1128,0.7978,0.8867,0,44.11,-7.38,-67.95,205.31,76.42,7.72,0,56.672,12.924192,77.68568,0,2881.76449388159,0,137.09677,0,0 / 0,73839,2018-08-03 20:48:26:659
-1.6624,-0.7135,-1.2635,1.9096,-9.1637,-2.9243,-3.4765,5.8568,4.6955,0.0252,-1.4754,-0.3031,0,33.61,14.1,-63.66,352.98,69.17,-144.97,0,56.259,12.924192,77.68568,0,2881.76449388159,0,137.09677,0,0 / 0,74339,2018-08-03 20:48:27:159
1.4165,-9.5158,-1.1055,-0.1429,-9.6891,1.5074,1.5269,1.4208,-1.5428,1.4377,1.1888,0.1869,0,43.48,-4.38,-68.48,206.97,81.12,5.41,0,57.051,12.924192,77.68568,0,2881.76449388159,0,137.09677,0,0 / 0,74838,2018-08-03 20:48:27:658
-1.7271,-3.9098,1.0074,1.6646,-9.2479,-2.8063,-3.4543,4.7008,4.6928,-0.7258,-0.6786,-1.1064,0,37.47,13.19,-64.29,1.73,72.87,-151.71,0,59.371,12.924192,77.68568,0,2881.76449388159,0,137.09677,0,0 / 0,75339,2018-08-03 20:48:28:159
0.7892,-7.549,0.0904,0.1531,-9.8046,-0.1277,0.3701,1.9401,0.3564,1.9608,0.1161,0.0548,0,37.2,4.93,-69.16,17.9,84.71,-169.73,0,58.575,12.924192,77.68568,0,2881.76449388159,0,137.09677,0,0 / 0,75840,2018-08-03 20:48:28:660
0.5366,-8.6132,1.9698,1.2425,-9.6114,-1.499,0.3498,-1.3874,2.7314,-1.3458,-0.1641,-1.1415,0,40.88,9,-64.97,353.76,82.34,-141.48,0,52.672,12.924192,77.68568,0,2881.76449388159,0,137.09677,0,0 / 0,76339,2018-08-03 20:48:29:159
6.3533,-22.2446,2.0249,-0.3605,-9.6769,-1.5489,-4.7778,3.3059,6.0457,1.4356,1.1163,1.8103,0,33.67,10.91,-68.14,9.7,71.75,-163.1,0,49.384,12.924192,77.68568,0,2881.76449388159,0,137.09677,0,0 / 0,76838,2018-08-03 20:48:29:658
-2.7291,-18.7048,4.7639,-0.0113,-9.806,0.1155,4.7211,-5.8752,-2.7827,-3.2164,-1.3881,-1.3418,0,44.99,4.49,-65.08,209.12,89.32,5.6,0,50.043,12.924192,77.68568,0,2881.76449388159,0,137.09677,0,0 / 0,77339,2018-08-03 20:48:30:159
-2.079,-12.6163,6.3907,1.2062,-9.1155,-3.4093,-4.4413,-3.8111,4.3447,0.6239,0.2119,0.2146,0,24.62,15.08,-64.47,1.73,66.27,-160.4,0,58.412,12.924192,77.68568,0,2881.76449388159,0,137.09677,0,0 / 0,77839,2018-08-03 20:48:30:659
3.0266,-20.5866,-5.3911,-0.4847,-9.6682,1.5687,4.7663,-6.7737,-4.6457,-1.9658,-1.0195,-0.6994,0,45.3,-2.93,-67.28,193.18,75.01,21.02,0,58.263,12.924192,77.68568,0,2881.76449388159,0,137.09677,0,0 / 0,78339,2018-08-03 20:48:31:159
7.6666,-27.4807,-6.3488,1.1214,-9.0191,-3.6836,-5.2361,1.0298,-1.9457,-0.5394,-1.7513,0.0377,0,26.23,15.02,-61.83,359.3,68.05,-156.54,0,60.278,12.924192,77.68568,0,2881.76449388159,0,137.09677,0,0 / 0,78839,2018-08-03 20:48:31:659
5.6075,-12.7097,0.1311,-1.2678,-9.4442,2.3172,3.8885,-0.6129,-3.9635,0.3778,0.7371,0.1997,0,49.62,-6.87,-65.9,188.58,74.37,28.68,0,60.969,12.924192,77.68568,0,2881.76449388159,0,137.09677,0,0 / 0,79339,2018-08-03 20:48:32:159
-4.0686,-22.0746,-7.334,1.3228,-8.7728,-4.1784,3.2111,-9.8768,-8.506,-2.3078,-0.766,-0.953,0,25.24,16.77,-59.43,4.75,69.41,-161.93,0,61.423,12.924192,77.68568,0,2881.76449388159,0,137.09677,0,0 / 0,79839,2018-08-03 20:48:32:659
3.1391,-12.5145,-0.1622,-1.4488,-9.3135,2.7075,4.5859,-2.626,-5.277,-0.0771,1.2367,0.3073,0,45.73,-6.5,-67.65,196.18,73.37,18.15,0,64.079,12.924192,77.68568,0,2881.76449388159,0,137.09677,0,0 / 0,80339,2018-08-03 20:48:33:159
-3.172,-6.7433,-5.3445,0.6455,-9.2127,-3.2984,1.1256,0.8192,-3.6916,0.3469,-1.0696,0.2146,0,23.59,14.7,-59.75,10.52,69.96,-168.93,0,63.348,12.924192,77.68568,0,2881.76449388159,0,137.09677,0,0 / 0,80839,2018-08-03 20:48:33:659
2.9919,-12.0932,-3.866,-0.6731,-9.4158,2.6572,0.5446,-0.4545,-4.0837,1.2577,0.898,0.7781,0,41.42,-2.61,-66.66,204.21,76.52,7.64,0,62.918,12.924192,77.68568,0,2881.76449388159,0,137.09677,0,0 / 0,81339,2018-08-03 20:48:34:159
-2.9254,0.1352,1.1426,1.0741,-9.2557,-3.0577,-3.104,7.6974,5.144,0.5738,-2.2531,0.3861,0,25.15,14.12,-61.24,356.68,68.9,-154.36,0,60.399,12.924192,77.68568,0,2881.76449388159,0,137.09677,0,0 / 0,81839,2018-08-03 20:48:34:659
-2.5579,-8.4743,-1.5688,-0.3037,-9.7336,1.1556,-0.4302,1.3587,-1.5572,1.377,0.9683,0.3083,0,32.49,0.15,-66.86,193.34,86.07,12.22,0,61.257,12.924192,77.68568,0,2881.76449388159,0,137.09677,0,0 / 0,82339,2018-08-03 20:48:35:159
-1.8085,-2.7977,0.1622,1.6922,-9.2853,-2.6626,-3.8993,2.3034,4.9888,-1.0806,-1.0547,-0.8198,0,30.92,12.29,-61.61,354.14,71.23,-147.56,0,66.815,12.924192,77.68568,0,2881.76449388159,0,137.09677,0,0 / 0,82839,2018-08-03 20:48:35:659
-0.7574,-9.1052,-2.2667,-0.2828,-9.7745,0.7414,0.2012,-1.0367,-1.0913,2.4178,0.9129,-0.2115,0,33.98,2.2,-65.65,92.96,87.72,114.23,0,72.378,12.924192,77.68568,0,2881.76449388159,0,137.09677,0,0 / 0,83339,2018-08-03 20:48:36:159
-0.5108,-9.5098,1.5856,0.4818,-9.6648,-1.5904,1.1738,-4.8058,2.936,-1.3085,0.5038,-0.9657,0,37.9,8.97,-62.3,14.55,80.24,-163.15,0,66.923,12.924192,77.68568,0,2881.76449388159,0,137.09677,0,0 / 0,83839,2018-08-03 20:48:36:659
8.1849,-9.0609,-1.5676,-0.4988,-9.6835,-1.4666,-5.5428,8.1979,7.4413,1.4143,0.9875,1.9776,0,34.62,6.37,-65.28,20.81,77.52,-172.42,0,59.897,12.924192,77.68568,0,2881.76449388159,0,137.09677,0,0 / 0,84339,2018-08-03 20:48:37:159
-1.69,-18.949,5.9873,-0.0054,-9.7648,-0.9055,-3.7038,-5.4293,-0.4548,-3.0865,0.0383,-0.8752,0,43.63,5.35,-62.69,35.19,84.7,179.66,0,58.417,12.924192,77.68568,0,2881.76449388159,0,137.09677,0,0 / 0,84838,2018-08-03 20:48:37:658
-6.0977,-5.3762,6.5404,0.3565,-9.4814,-2.479,-3.8797,8.3495,9.085,1.2311,0.5209,1.576,0,26.84,12.07,-63.65,5.81,71,-162.95,0,57.304,12.924192,77.68568,0,2881.76449388159,0,137.09677,0,0 / 0,85339,2018-08-03 20:48:38:159
-10.6658,-14.6011,-11.2821,-0.9254,-9.5584,1.9876,5.3406,-3.9813,-2.2518,-1.3,-1.0589,-0.3884,0,46.96,-7.78,-63.84,189.44,73.57,26.97,0,56.688,12.924192,77.68568,0,2881.76449388159,0,137.09677,0,0 / 0,85840,2018-08-03 20:48:38:660
-1.1118,-6.4524,-3.5883,0.8787,-9.347,-2.8342,-2.4758,2.5495,0.1422,0.3469,-1.4094,0.1677,0,26.81,10.85,-62.5,2.07,71.52,-158.53,0,61.205,12.924192,77.68568,0,2881.76449388159,0,137.09677,0,0 / 0,86339,2018-08-03 20:48:39:159
3.2337,-10.4711,-0.4244,-1.1905,-9.3758,2.6166,4.3711,-1.8683,-4.7772,0.087,0.719,0.0857,0,45.5,-9.25,-64.45,195.57,73.48,20.25,0,54.209,12.924192,77.68568,0,2881.76449388159,0,137.09677,0,0 / 0,86839,2018-08-03 20:48:39:659
-2.4561,-12.6462,-5.8556,0.8856,-9.2737,-3.0636,-1.4384,7.1717,3.6246,0.4236,-1.6949,0.369,0,28.07,12.06,-63.96,7.49,71.02,-163.88,0,55.794,12.924192,77.68568,0,2881.76449388159,0,137.09677,0,0 / 0,87339,2018-08-03 20:48:40:159
-3.5419,-8.7341,-0.2221,-0.5851,-9.5244,2.2614,0.0404,0.8196,-3.317,1.3887,1.0641,0.4106,0,44.54,-4.39,-68.49,202.86,79.2,10.79,0,53.255,12.924192,77.68568,0,2881.76449388159,0,137.09677,0,0 / 0,87839,2018-08-03 20:48:40:659
-0.6234,-2.8743,1.3629,1.4257,-9.2045,-3.0684,-2.9126,6.8973,4.2212,0.3362,-1.8557,-0.3213,0,32.02,13.8,-62.77,0.17,69.23,-153.24,0,55.635,12.924192,77.68568,0,2881.76449388159,0,137.09677,0,0 / 0,88340,2018-08-03 20:48:41:160
3.5018,-9.0214,-1.5317,-0.1864,-9.7452,1.0804,-0.2055,1.4982,-0.3666,1.2769,1.0119,0.3413,0,40.95,-0.19,-68.09,209.42,86.52,1.71,0,56.057,12.924192,77.68568,0,2881.76449388159,0,137.09677,0,0 / 0,88840,2018-08-03 20:48:41:660
-1.4745,-4.6352,2.0057,1.597,-9.4073,-2.2635,-1.3595,3.4579,4.5243,-0.9431,-0.9705,-1.0147,0,38.19,12.82,-61.34,356.75,73.59,-144.8,0,54.941,12.924192,77.68568,0,2881.76449388159,0,137.09677,0,0 / 0,89339,2018-08-03 20:48:42:159
-1.6409,-11.1929,0.9463,-0.0112,-9.8065,-0.0515,3.4128,1.3987,-0.2934,2.0843,0.6753,-0.1423,0,35.83,5.8,-67.36,37.21,84.98,170.9,0,58.303,12.924192,77.68568,0,2881.76449388159,0,137.09677,0,0 / 0,89839,2018-08-03 20:48:42:659
5.7261,-10.27,4.0528,0.4905,-9.669,-1.5622,-1.1079,-5.201,5.2567,-1.8103,0.8298,-1.2033,0,44.91,7.13,-62.96,35.18,84.3,-179.8,0,58.206,12.924192,77.68568,0,2881.76449388159,0,137.09677,0,0 / 0,90339,2018-08-03 20:48:43:159
11.8552,-21.7945,3.0077,0.1703,-9.5605,-2.1768,-12.3098,11.1244,4.6556,1.9139,1.6373,2.6647,0,28.37,10.29,-65.17,1.55,70.97,-158.23,0,55.816,12.924192,77.68568,0,2881.76449388159,0,137.09677,0,0 / 0,90839,2018-08-03 20:48:43:659
-4.9269,-13.0125,-6.2722,-0.181,-9.7741,0.7776,-1.5414,-5.549,-5.762,-2.6358,-1.2091,-1.1287,0,40.3,-5.31,-65.53,186.67,75.11,24.66,0,57.885,12.924192,77.68568,0,2881.76449388159,0,137.09677,0,0 / 0,91339,2018-08-03 20:48:44:159
4.821,-14.7723,7.4801,1.1305,-9.2112,-3.1697,-3.7843,-2.1816,-3.576,-0.5575,0.4814,0.4021,0,18.31,9.39,-60.7,352.85,70.87,-156.47,0,54.754,12.924192,77.68568,0,2881.76449388159,0,137.09677,0,0 / 0,91839,2018-08-03 20:48:44:659
2.7465,-14.467,-0.7739,-1.1071,-9.3823,2.6301,2.9605,-2.0699,-5.0872,-0.0036,0.4623,0.1091,0,39.37,-13.36,-65.67,189.25,72.59,21.28,0,51.593,12.924192,77.68568,0,2881.76449388159,0,137.09677,0,0 / 0,92340,2018-08-03 20:48:45:160
3.8741,-11.1163,-5.4534,1.1069,-9.2908,-2.9369,1.3875,-5.791,-6.452,-0.3189,-0.4144,-0.3585,0,14.7,8.65,-67.19,351.89,71.33,-159.35,0,57.597,12.924192,77.68568,0,2881.76449388159,0,137.09677,0,0 / 0,92839,2018-08-03 20:48:45:659
3.8777,-11.9304,-1.9052,-0.854,-9.4737,2.3853,3.6249,-0.7333,-4.3883,0.8433,0.8735,0.6247,0,35.53,-9.92,-71.49,191.43,76.77,15.43,0,56.12,12.924192,77.68568,0,2881.76449388159,0,137.09677,0,0 / 0,93339,2018-08-03 20:48:46:159
2.264,-22.2913,-19.0201,1.2288,-9.348,-2.6971,-3.7743,8.9905,3.0586,0.9349,-2.6653,0.1826,0,22.64,8.31,-68.13,354.12,72.41,-155.51,0,57.179,12.924192,77.68568,0,2881.76449388159,0,137.09677,0,0 / 0,93839,2018-08-03 20:48:46:659
-0.2547,-9.5038,-1.983,-0.2213,-9.6231,1.8755,-0.2652,1.9699,-2.6684,1.5464,1.7267,0.0463,0,37.22,-6.66,-71.14,203.71,82.18,3.74,0,59.375,12.924192,77.68568,0,2881.76449388159,0,137.09677,0,0 / 0,94339,2018-08-03 20:48:47:159
-3.5994,-0.9913,1.6801,1.6169,-8.9911,-3.5659,-3.1475,6.8404,6.2958,-0.1463,-1.4595,-0.4544,0,27.74,13.31,-66.29,353.62,69.88,-150.62,0,54.988,12.924192,77.68568,0,2881.76449388159,0,137.09677,0,0 / 0,94839,2018-08-03 20:48:47:659
3.369,-10.495,0.4423,0.069,-9.7898,0.5697,1.764,2.4422,-0.3698,1.7573,-0.2259,0.4159,0,30.99,-1.21,-72.78,209.94,86.65,-6.91,0,56.461,12.924192,77.68568,0,2881.76449388159,0,137.09677,0,0 / 0,95339,2018-08-03 20:48:48:159
-1.7834,-2.0698,0.5465,1.5624,-9.332,-2.5774,1.4898,-0.5679,3.8674,-1.7219,-1.0376,-0.8187,0,35.29,12.07,-67.25,353.2,76.15,-145.56,0,54.881,12.924192,77.68568,0,2881.76449388159,0,137.09677,0,0 / 0,95839,2018-08-03 20:48:48:659
2.9296,-6.0825,-2.9598,-0.4275,-9.797,-0.0777,5.3125,-1.4233,-0.0284,2.5786,0.3067,-0.1231,0,31.82,2.64,-71.53,52.07,82.95,151.89,0,49.457,12.924192,77.68568,0,2881.76449388159,0,137.09677,0,0 / 0,96339,2018-08-03 20:48:49:159
4.8079,-12.3254,3.0568,0.5917,-9.6511,-1.6358,0.098,-7.1766,6.2596,-1.2563,0.9076,-1.0083,0,39.95,8.16,-67.64,23.49,82.42,-173.15,0,52.038,12.924192,77.68568,0,2881.76449388159,0,137.09677,0,0 / 0,96838,2018-08-03 20:48:49:658
8.0855,-19.2351,-2.5468,-0.127,-9.4965,-2.4436,-1.3292,-6.2513,6.4135,2.2463,1.9654,2.4825,0,21.85,11.9,-68.35,20.65,75.55,177.02,0,49.142,12.924192,77.68568,0,2881.76449388159,0,137.09677,0,0 / 0,97339,2018-08-03 20:48:50:159
-2.7901,-16.2028,5.2391,-0.0078,-9.8048,0.1904,2.7025,-5.8798,-3.6986,-3.3815,-1.2699,-1.0563,0,38.13,0.46,-69.84,190.54,80.51,18.1,0,52.509,12.924192,77.68568,0,2881.76449388159,0,137.09677,0,0 / 0,97839,2018-08-03 20:48:50:659
-11.1902,3.0705,3.2914,0.6799,-9.2103,-3.2981,-3.8999,5.1916,7.9601,1.1405,0.6796,0.6875,0,20.32,12.4,-62.73,4.65,66.51,-166.99,0,56.806,12.924192,77.68568,0,2881.76449388159,0,137.09677,0,0 / 0,98339,2018-08-03 20:48:51:159
5.7859,-18.3265,-2.0704,-1.1935,-9.4228,2.4408,4.3954,-1.0912,-2.6661,-0.353,-0.3388,0.2742,0,41.21,-9.74,-67.97,186.42,73.06,24.71,0,56.287,12.924192,77.68568,0,2881.76449388159,0,137.09677,0,0 / 0,98839,2018-08-03 20:48:51:659
-3.0391,-4.5682,-3.8062,1.187,-9.2887,-2.9123,-2.05,0.0828,-3.1706,-0.3285,-0.3058,-0.8613,0,12.15,11.3,-64.47,348.47,71.3,-157.82,0,57.305,12.924192,77.68568,0,2881.76449388159,0,137.09677,0,0 / 0,99339,2018-08-03 20:48:52:159
3.4791,-12.0728,-0.2915,-1.3583,-9.3872,2.491,2.5845,0.518,-4.5102,0.5418,1.1313,0.303,0,34.67,-9.36,-69.41,181,74.13,25.9,0,45.613,12.924192,77.68568,0,2881.76449388159,0,137.09677,0,0 / 0,99839,2018-08-03 20:48:52:659
6.5904,-25.3139,-16.8139,1.2008,-9.3297,-2.7723,-3.6183,8.6078,4.0759,1.1288,-2.4864,0.2838,0,9.59,8.65,-65.09,340.45,69.28,-151.95,0,54.338,12.924192,77.68568,0,2881.76449388159,0,137.09677,0,0 / 0,100339,2018-08-03 20:48:53:159
5.4184,-10.9918,-5.0883,-0.7035,-9.4541,2.5092,0.8767,1.1395,-3.3559,1.7328,1.4104,0.4628,0,21.39,-9.8,-72,184.07,78.36,12.16,0,49.885,12.924192,77.68568,0,2881.76449388159,0,137.09677,0,0 / 0,100839,2018-08-03 20:48:53:659
-2.5483,-1.7742,4.1198,2.0441,-9.2911,-2.3805,-3.6987,8.2635,6.0398,1.5741,-2.8763,-0.5492,0,11.27,5.35,-64.57,333.62,69.2,-144.83,0,55.26,12.924192,77.68568,0,2881.76449388159,0,137.09677,0,0 / 0,101339,2018-08-03 20:48:54:159
-5.7601,-8.1786,-0.6518,-0.0427,-9.5007,2.43,2.9562,1.1887,-1.639,1.8787,2.0815,0.1901,0,27.29,-13.09,-73.86,198.83,75.65,1.01,0,51.028,12.924192,77.68568,0,2881.76449388159,0,137.09677,0,0 / 0,101839,2018-08-03 20:48:54:659
-1.9593,-2.1776,2.8281,1.7738,-9.1853,-2.9417,-3.6302,8.4865,5.228,-0.0995,-1.5958,-0.6334,0,22.2,11.91,-68.95,345.81,70.16,-148.14,0,54.684,12.924192,77.68568,0,2881.76449388159,0,137.09677,0,0 / 0,102339,2018-08-03 20:48:55:159
1.3662,-9.5397,-0.9164,-0.3494,-9.6479,1.7223,-0.435,1.2875,-0.5481,1.4185,1.6383,0.3392,0,33.87,-5.69,-73.76,193.24,79.68,11.47,0,56.256,12.924192,77.68568,0,2881.76449388159,0,137.09677,0,0 / 0,102839,2018-08-03 20:48:55:659
-0.9155,-5.5714,1.9543,1.1382,-9.498,-2.1592,-0.5978,-1.8854,4.0772,-1.4843,-1.0366,-0.5034,0,33.67,10.28,-66.38,354.66,78.68,-147.37,0,50.688,12.924192,77.68568,0,2881.76449388159,0,137.09677,0,0 / 0,103339,2018-08-03 20:48:56:159
-3.1193,-9.013,2.451,-0.4539,-9.7908,0.3219,8.0464,-4.6371,0.4817,2.2793,0.425,-0.4097,0,35.08,-1.63,-68.38,152.58,86.75,54.65,0,51.382,12.924192,77.68568,0,2881.76449388159,0,137.09677,0,0 / 0,103839,2018-08-03 20:48:56:659
4.4356,-10.3059,1.9566,0.7162,-9.6677,-1.4809,1.413,-3.9191,1.4278,-1.1818,0.1981,-1.0339,0,35.09,3.64,-63.26,13.64,83.54,-164.59,0,58.645,12.924192,77.68568,0,2881.76449388159,0,137.09677,0,0 / 0,104339,2018-08-03 20:48:57:159
6.1008,-25.4612,8.0248,-0.5096,-9.705,-1.313,-6.6885,10.0041,6.1594,1.296,1.2431,2.0852,0,19.76,5.59,-65.21,352.65,74.24,-155.65,0,54.85,12.924192,77.68568,0,2881.76449388159,0,137.09677,0,0 / 0,104838,2018-08-03 20:48:57:658
-0.7419,-17.218,6.3261,-0.4048,-9.7902,0.3978,-1.1074,-3.2491,-0.5394,-3.3379,-1.1069,-0.7697,0,33.1,-2.48,-69.86,159.74,86.68,45.5,0,53.652,12.924192,77.68568,0,2881.76449388159,0,137.09677,0,0 / 0,105339,2018-08-03 20:48:58:159
-8.2226,5.3893,9.4709,1.3314,-9.376,-2.5473,-0.2883,-8.0544,0.6977,-0.664,0.8639,0.0665,0,22.68,9.8,-68.1,349.65,73.72,-150.96,0,53.966,12.924192,77.68568,0,2881.76449388159,0,137.09677,0,0 / 0,105839,2018-08-03 20:48:58:659
-1.6517,-16.9115,-5.9239,-0.6909,-9.675,1.4448,4.1605,-5.6885,-3.64,-1.838,-1.0749,-0.8986,0,42.54,-7.07,-67.64,183.75,75.41,28.59,0,50.689,12.924192,77.68568,0,2881.76449388159,0,137.09677,0,0 / 0,106339,2018-08-03 20:48:59:159
9.1282,-26.9851,-8.6197,1.1718,-9.3431,-2.7393,-2.2809,-6.0695,-2.6225,-0.141,-1.3231,-0.432,0,23.55,8.21,-63.71,355.76,72.96,-155.24,0,50.426,12.924192,77.68568,0,2881.76449388159,0,137.09677,0,0 / 0,106839,2018-08-03 20:48:59:659
3.8729,-14.0756,1.6693,-1.1467,-9.417,2.4852,5.027,-1.5521,-2.4716,0.0955,0.6806,0.1102,0,39.58,-11.22,-68.29,185.7,73.79,24.77,0,53.936,12.924192,77.68568,0,2881.76449388159,0,137.09677,0,0 / 0,107339,2018-08-03 20:49:00:159
2.9141,-22.4194,-4.03,1.2228,-9.3637,-2.6449,-0.7602,1.5397,-3.1553,-0.696,0.5102,-0.4374,0,23.96,5.33,-68.78,355.65,74.83,-156.55,0,53.461,12.924192,77.68568,0,2881.76449388159,0,137.09677,0,0 / 0,107839,2018-08-03 20:49:00:659
4.45,-11.1546,-6.0304,-0.716,-9.5155,2.2614,2.8131,0.4012,-3.3449,1.2406,1.1259,0.3733,0,42.49,-13.53,-72.78,192.21,76,17.57,0,56.636,12.924192,77.68568,0,2881.76449388159,0,137.09677,0,0 / 0,108339,2018-08-03 20:49:01:159
-2.0826,-2.3907,0.841,1.3934,-9.3881,-2.4682,-2.5538,6.488,5.0623,0.4385,-2.0805,-0.6526,0,25.87,10.37,-68.11,352.5,72.71,-151.6,0,52.664,12.924192,77.68568,0,2881.76449388159,0,137.09677,0,0 / 0,108839,2018-08-03 20:49:01:659
-0.0811,-8.6228,-2.3912,-0.5226,-9.5951,1.9575,1.3103,0.9265,-2.7775,1.5602,1.4242,0.2391,0,32.35,-3.31,-72.83,188.52,85.16,15.16,0,56.858,12.924192,77.68568,0,2881.76449388159,0,137.09677,0,0 / 0,109339,2018-08-03 20:49:02:159
-1.5559,-2.4972,1.6478,1.4592,-9.278,-2.8214,-1.1224,4.5509,5.6196,-0.8633,-0.636,-0.807,0,27.2,13.03,-67.18,354.63,71.1,-152.65,0,52.342,12.924192,77.68568,0,2881.76449388159,0,137.09677,0,0 / 0,109839,2018-08-03 20:49:02:659
1.9755,-8.9807,0.7811,-0.1113,-9.7736,0.7969,-0.9021,1.7639,0.2759,1.5837,0.785,-0.5141,0,27.67,0,-72.44,144.84,88.05,56.39,0,56.646,12.924192,77.68568,0,2881.76449388159,0,137.09677,0,0 / 0,110339,2018-08-03 20:49:03:159
0.5199,-7.4101,0.7895,1.3524,-9.4567,-2.2165,0.7793,-3.8365,2.8135,-1.3469,-1.501,-0.8869,0,34.16,9.74,-69.65,352.09,78.02,-146.15,0,57.316,12.924192,77.68568,0,2881.76449388159,0,137.09677,0,0 / 0,110839,2018-08-03 20:49:03:659
8.3214,-5.0662,-2.6785,-0.3415,-9.794,-0.3626,9.6186,-7.2902,2.5301,1.8936,1.2761,0.434,0,28.52,4.45,-71.19,0.17,79.11,-157.95,0,53.285,12.924192,77.68568,0,2881.76449388159,0,137.09677,0,0 / 0,111338,2018-08-03 20:49:04:158
4.3602,-17.4023,-1.3042,0.0229,-9.7598,-0.9575,-2.5134,-2.5207,0.8994,-3.0375,-0.9087,-0.7303,0,36.51,5.23,-68.56,26.78,84.4,-178.63,0,54.052,12.924192,77.68568,0,2881.76449388159,0,137.09677,0,0 / 0,111839,2018-08-03 20:49:04:659
-9.2652,3.7169,1.4862,1.3161,-9.5477,-1.811,-6.6225,5.9341,5.7073,0.7197,-0.064,0.0793,0,16.03,5.66,-67.25,339.39,74.74,-146.16,0,56.847,12.924192,77.68568,0,2881.76449388159,0,137.09677,0,0 / 0,112339,2018-08-03 20:49:05:159
-2.1353,-10.6435,-5.2032,-0.5226,-9.7626,0.7677,4.0539,-4.7718,-2.6713,-3.1152,-0.9556,-0.8241,0,33.16,-6.97,-69.06,179.67,77.08,25.89,0,55.715,12.924192,77.68568,0,2881.76449388159,0,137.09677,0,0 / 0,112839,2018-08-03 20:49:05:659
4.8941,-9.3638,12.6228,1.0795,-9.3846,-2.6334,1.0834,-9.2543,-6.6926,-0.1889,-0.9897,-0.1679,0,15.79,2.95,-65.82,348.9,74.02,-155.55,0,58.927,12.924192,77.68568,0,2881.76449388159,0,137.09677,0,0 / 0,113339,2018-08-03 20:49:06:159
0.7533,-17.6274,-1.2528,-1.1431,-9.3633,2.682,3.7485,-2.3922,-4.8431,-0.3583,0.0447,0.0974,0,33.94,-16.51,-69.83,185.76,71.75,20.04,0,53.735,12.924192,77.68568,0,2881.76449388159,0,137.09677,0,0 / 0,113839,2018-08-03 20:49:06:659
4.1399,-14.0097,-5.6018,1.2879,-9.5774,-1.6686,-2.8473,6.7604,1.9432,0.8678,-0.2333,0.2465,0,21.76,2.67,-69.41,339.76,77.59,-142.34,0,56.64,12.924192,77.68568,0,2881.76449388159,0,137.09677,0,0 / 0,114339,2018-08-03 20:49:07:159
2.2042,-12.73,0.7679,-1.0172,-9.2942,2.9587,1.1777,0.3057,-4.566,1.1245,0.7083,0.7419,0,36.9,-11.74,-70.94,192.97,73.91,14.51,0,58.769,12.924192,77.68568,0,2881.76449388159,0,137.09677,0,0 / 0,114839,2018-08-03 20:49:07:659
3.4193,-31.3258,-21.722,0.952,-9.5435,-2.0457,-1.1803,5.3177,1.3421,1.6891,-2.5503,-0.1103,0,24.49,5.64,-69.66,353.92,76.7,-155.05,0,60.164,12.924192,77.68568,0,2881.76449388159,0,137.09677,0,0 / 0,115339,2018-08-03 20:49:08:159
-0.8879,-9.2489,-0.4854,-0.5833,-9.4936,2.3878,1.0115,0.8008,-2.4056,1.3099,1.4231,0.2455,0,39,-5.77,-71.73,197.46,78.28,11.07,0,61.535,12.924192,77.68568,0,2881.76449388159,0,137.09677,0,0 / 0,115838,2018-08-03 20:49:08:658
-1.9857,-2.2446,0.2532,1.0484,-9.2292,-3.1454,-1.794,4.0016,6.2894,-0.2433,-1.5969,-0.6984,0,24.32,10.3,-63.67,2.14,70.24,-161.57,0,61.352,12.924192,77.68568,0,2881.76449388159,0,137.09677,0,0 / 0,116340,2018-08-03 20:49:09:160
3.6742,-9.5685,-1.2264,-0.5045,-9.7444,0.9811,-1.8369,1.9631,-1.636,1.524,0.8468,0.3818,0,31.04,-5.98,-73.16,167.83,86.93,35.21,0,59.076,12.924192,77.68568,0,2881.76449388159,0,137.09677,0,0 / 0,116839,2018-08-03 20:49:09:659
0.5749,-4.9585,3.1286,1.1691,-9.3537,-2.704,-0.6378,3.7975,4.3626,-1.1189,-0.2238,-0.6419,0,32.34,8.9,-71.42,0.89,72.52,-156.62,0,62.718,12.924192,77.68568,0,2881.76449388159,0,137.09677,0,0 / 0,117339,2018-08-03 20:49:10:159
3.4695,-6.8427,-2.1877,-0.3003,-9.7901,0.4846,2.127,-8.2511,4.4634,2.21,0.5613,-0.3351,0,32.37,-2.09,-73.99,71.49,86.32,132.01,0,64.404,12.924192,77.68568,0,2881.76449388159,0,137.09677,0,0 / 0,117839,2018-08-03 20:49:10:659
2.1539,-9.0525,3.9989,0.6394,-9.6918,-1.3528,1.2452,-5.7941,2.3823,-1.7527,1.2122,-1.0669,0,38.16,7.28,-67.65,3.89,81.22,-154.7,0,66.041,12.924192,77.68568,0,2881.76449388159,0,137.09677,0,0 / 0,118339,2018-08-03 20:49:11:159
2.027,-24.4377,4.6202,-0.3188,-9.6875,-1.4902,-8.3324,8.1615,5.8011,1.443,1.0514,2.4495,0,27.31,5.98,-72.63,2.75,76.91,-162.43,0,64.975,12.924192,77.68568,0,2881.76449388159,0,137.09677,0,0 / 0,118839,2018-08-03 20:49:11:659
-0.038,-16.7104,7.6189,-0.0532,-9.7774,-0.7551,-1.3988,-3.3035,1.9199,-3.0385,-1.1836,-0.8922,0,38.59,-0.63,-74.88,182.28,79.14,25.23,0,65.056,12.924192,77.68568,0,2881.76449388159,0,137.09677,0,0 / 0,119339,2018-08-03 20:49:12:159
-14.408,4.6016,-0.1634,1.616,-9.2868,-2.7045,1.672,-7.58,-0.5055,-0.8313,1.6053,-0.2605,0,17.47,14.72,-73.3,342.49,71.26,-149.14,0,64.386,12.924192,77.68568,0,2881.76449388159,0,137.09677,0,0 / 0,119839,2018-08-03 20:49:12:659
-3.3348,-12.8402,-6.52,-0.7968,-9.5155,2.2339,5.2002,-4.9992,-3.0238,-0.5916,-0.6701,-0.4278,0,42.03,-9.23,-78.9,184.07,73.87,23.97,0,61.946,12.924192,77.68568,0,2881.76449388159,0,137.09677,0,0 / 0,120339,2018-08-03 20:49:13:159
-4.7282,-5.4816,-1.6634,1.3507,-9.3293,-2.7038,1.0493,-9.2359,-8.0041,0.12,-1.452,-0.2968,0,22.89,11.31,-68.96,350.04,72.54,-151.6,0,59.715,12.924192,77.68568,0,2881.76449388159,0,137.09677,0,0 / 0,120840,2018-08-03 20:49:13:660
4.5876,-10.6112,-1.4455,-1.1109,-9.4099,2.5279,1.2665,0.7889,-3.1335,0.6611,1.0897,0.4159,0,44.18,-9.95,-73.61,190.67,75.1,20.1,0,57.774,12.924192,77.68568,0,2881.76449388159,0,137.09677,0,0 / 0,121339,2018-08-03 20:49:14:159
-1.0412,-18.7478,-6.1166,1.1333,-9.4666,-2.2954,-2.6085,5.519,1.5084,1.0372,-0.9279,0.0399,0,33.63,10.69,-72.28,359,74.87,-153.72,0,57.039,12.924192,77.68568,0,2881.76449388159,0,137.09677,0,0 / 0,121839,2018-08-03 20:49:14:659
-1.4685,-10.6842,-2.2859,-0.6369,-9.461,2.5009,-0.6602,0.3299,-3.4067,1.132,1.0269,0.483,0,54.69,-6.44,-74.49,207.57,77.19,9.25,0,56.932,12.924192,77.68568,0,2881.76449388159,0,137.09677,0,0 / 0,122339,2018-08-03 20:49:15:159
-2.6321,-1.7346,2.3337,1.3779,-9.3996,-2.433,-3.9856,7.9471,4.3355,0.4928,-2.2328,-0.3308,0,36.36,11.41,-64.31,358.24,72.56,-148.88,0,51.734,12.924192,77.68568,0,2881.76449388159,0,137.09677,0,0 / 0,122839,2018-08-03 20:49:15:659
0.375,-8.624,-1.2288,-0.1867,-9.6891,1.502,-0.2099,0.998,-0.8861,1.5208,1.438,0.1336,0,39.65,-2.57,-67.83,206.68,84.51,3.8,0,58.29,12.924192,77.68568,0,2881.76449388159,0,137.09677,0,0 / 0,123339,2018-08-03 20:49:16:159
-0.9909,-3.9289,2.4654,1.4418,-9.2868,-2.8011,-0.6364,2.5413,4.8063,-0.6992,-0.473,-0.7825,0,33.8,8.13,-63.77,359.59,76.39,-151.61,0,56.032,12.924192,77.68568,0,2881.76449388159,0,137.09677,0,0 / 0,123839,2018-08-03 20:49:16:659
-1.9031,-8.7078,2.3254,0.0019,-9.7875,0.6125,0.3803,2.1539,-0.4931,1.6092,0.964,-0.285,0,32.39,-1.18,-74.56,112.19,89.41,90.92,0,54.62,12.924192,77.68568,0,2881.76449388159,0,137.09677,0,0 / 0,124339,2018-08-03 20:49:17:159
0.2469,-9.0992,3.3178,1.1077,-9.5689,-1.8386,0.0605,-5.5122,3.1281,-1.0305,-0.4879,-1.1692,0,38.8,4.88,-67.1,4.82,80.31,-154.6,0,57.346,12.924192,77.68568,0,2881.76449388159,0,137.09677,0,0 / 0,124839,2018-08-03 20:49:17:659
6.4084,-21.4844,1.7507,0.0052,-9.6872,-1.5262,3.3489,-7.891,5.0204,1.4825,1.5094,1.2777,0,35.19,-3.37,-71.07,18.48,76.93,-171.64,0,54.482,12.924192,77.68568,0,2881.76449388159,0,137.09677,0,0 / 0,125339,2018-08-03 20:49:18:159
-2.0204,-13.8122,4.959,-0.2402,-9.8007,0.2422,3.1992,-5.4144,-2.8403,-3.1248,-1.0696,-0.6952,0,42.61,-16.27,-70.17,186.09,75.04,25.37,0,52.425,12.924192,77.68568,0,2881.76449388159,0,137.09677,0,0 / 0,125839,2018-08-03 20:49:18:659
-14.6414,15.852,1.5077,1.3615,-9.2813,-2.859,-0.677,-11.3127,2.2698,-0.7674,0.5592,-0.1913,0,22.64,3,-70.88,352.17,71.16,-154.54,0,61.92,12.924192,77.68568,0,2881.76449388159,0,137.09677,0,0 / 0,126339,2018-08-03 20:49:19:159
-4.1716,-15.712,-7.759,-1.0092,-9.4778,2.3072,4.9708,-2.4003,-3.1735,-0.7205,-0.4059,-0.2627,0,42.65,-15.43,-67.79,187.05,72.89,25.18,0,56.795,12.924192,77.68568,0,2881.76449388159,0,137.09677,0,0 / 0,126839,2018-08-03 20:49:19:659
-4.7881,-4.6101,-0.9236,1.3153,-9.3621,-2.606,-1.2405,-0.8034,-0.9433,-0.207,-1.7716,-0.5748,0,24.68,5.3,-67.61,353.24,72.68,-153.22,0,57.456,12.924192,77.68568,0,2881.76449388159,0,137.09677,0,0 / 0,127339,2018-08-03 20:49:20:159
2.8135,-10.3478,-1.3474,-1.0547,-9.3862,2.6376,2.0899,-0.5513,-5.4022,0.6036,1.0514,0.5842,0,44.69,-12.16,-68.04,191.69,73.16,21.79,0,55.049,12.924192,77.68568,0,2881.76449388159,0,137.09677,0,0 / 0,127839,2018-08-03 20:49:20:659
3.0661,-30.161,-11.1301,1.1808,-9.538,-1.9498,-1.3052,3.465,-2.1182,1.083,-1.9921,0.0516,0,34.36,4.36,-69.15,354.16,74.61,-148.06,0,56.362,12.924192,77.68568,0,2881.76449388159,0,137.09677,0,0 / 0,128339,2018-08-03 20:49:21:159
-0.7981,-8.7664,1.4778,-0.2904,-9.5677,2.132,2.0962,0.1497,-2.5537,1.3781,1.1004,0.0963,0,40.97,-12.11,-68.9,203.46,80.18,6.99,0,55.547,12.924192,77.68568,0,2881.76449388159,0,137.09677,0,0 / 0,128839,2018-08-03 20:49:21:659
-1.6912,-1.9226,1.825,1.3045,-9.2215,-3.0712,-2.132,5.9921,5.8457,-0.1485,-0.9939,-0.7942,0,33.19,5.79,-65.87,7.01,72.62,-160.3,0,53.992,12.924192,77.68568,0,2881.76449388159,0,137.09677,0,0 / 0,129339,2018-08-03 20:49:22:159
1.8774,-9.432,0.1059,-0.0857,-9.7874,0.6082,-0.0772,1.4015,-0.5706,1.785,0.8223,-0.3095,0,32.46,-5.7,-72.58,195.61,86.41,8.02,0,58.267,12.924192,77.68568,0,2881.76449388159,0,137.09677,0,0 / 0,129839,2018-08-03 20:49:22:659
0.1152,-8.1044,1.054,0.6604,-9.4428,-2.5627,0.2101,0.885,3.1613,-1.8827,-1.3327,-0.2488,0,36.12,4.04,-68.58,7.55,78.33,-159.93,0,61.001,12.924192,77.68568,0,2881.76449388159,0,137.09677,0,0 / 0,130339,2018-08-03 20:49:23:159
4.5613,-6.8475,-2.9934,-0.3313,-9.801,-0.014,-0.7347,-5.7672,4.5506,2.3954,-0.1865,0.0463,0,30.06,-2.99,-73.1,39.34,83.81,163.32,0,54.272,12.924192,77.68568,0,2881.76449388159,0,137.09677,0,0 / 0,130839,2018-08-03 20:49:23:659
4.6714,-12.2488,-3.8876,0.1785,-9.741,-1.1187,-1.6404,-6.4862,5.184,-2.9299,0.6444,-0.677,0,43.61,1.05,-71.33,73.58,89.32,138.2,0,54.737,12.924192,77.68568,0,2881.76449388159,0,137.09677,0,0 / 0,131339,2018-08-03 20:49:24:159
-2.5675,-11.5509,7.8356,0.0838,-9.6141,-1.9317,-6.5005,5.7457,5.6102,1.8766,0.4069,2.0873,0,40.98,2.3,-73.36,27.17,78.63,-177.52,0,55.146,12.924192,77.68568,0,2881.76449388159,0,137.09677,0,0 / 0,131838,2018-08-03 20:49:24:658
-2.5914,-12.5301,-3.6099,-0.2762,-9.7661,0.8471,4.321,-4.8791,-2.9681,-2.8596,-1.7535,-0.9061,0,43.74,-7.65,-69.13,190.41,77.6,22.14,0,53.336,12.924192,77.68568,0,2881.76449388159,0,137.09677,0,0 / 0,132340,2018-08-03 20:49:25:160
4.3662,-31.1785,-8.8208,1.1602,-9.3656,-2.6663,1.6164,-1.2171,-2.0206,0.0539,-0.8895,-0.5375,0,17.37,8.91,-66.31,352.94,73.29,-158.53,0,58.893,12.924192,77.68568,0,2881.76449388159,0,137.09677,0,0 / 0,132839,2018-08-03 20:49:25:659
4.7061,-14.1115,0.7332,-0.9771,-9.3794,2.6912,2.868,-1.5888,-3.5774,0.2872,1.193,-0.186,0,45.11,-8.19,-72.69,192.13,73.05,19.71,0,57.075,12.924192,77.68568,0,2881.76449388159,0,137.09677,0,0 / 0,133339,2018-08-03 20:49:26:159
4.9623,-29.2416,-10.2873,1.0315,-9.5034,-2.1889,-2.0509,6.3873,1.4193,-0.1836,0.2119,-0.1487,0,29.14,6.75,-67.31,354.06,73.44,-150.74,0,58.033,12.924192,77.68568,0,2881.76449388159,0,137.09677,0,0 / 0,133839,2018-08-03 20:49:26:659
2.2664,-11.1666,-5.2427,-0.5367,-9.5115,2.3268,-1.0545,0.8963,-2.4733,1.4952,1.2559,0.2135,0,40.77,-11.73,-72.73,196.24,75.91,12.99,0,59.818,12.924192,77.68568,0,2881.76449388159,0,137.09677,0,0 / 0,134339,2018-08-03 20:49:27:159
-2.7386,-3.0682,0.7404,1.2773,-9.2916,-2.8645,-1.5847,6.6555,4.3094,0.414,-1.1878,-0.4555,0,37.74,10.86,-67.28,6.77,70.69,-157.15,0,59.028,12.924192,77.68568,0,2881.76449388159,0,137.09677,0,0 / 0,134839,2018-08-03 20:49:27:659
2.191,-9.1543,-1.0612,-0.3596,-9.6734,1.5707,1.0103,1.0606,-1.2774,1.5144,1.209,0.3925,0,40.61,-5.82,-69.67,197.48,80.54,12.9,0,59.211,12.924192,77.68568,0,2881.76449388159,0,137.09677,0,0 / 0,135339,2018-08-03 20:49:28:159
-1.1872,-4.8914,1.9076,1.4858,-9.3597,-2.5218,-2.2132,4.6875,4.921,-0.3679,-0.6456,-0.9657,0,34.31,8.18,-66.43,0.56,76.73,-153.3,0,49.779,12.924192,77.68568,0,2881.76449388159,0,137.09677,0,0 / 0,135839,2018-08-03 20:49:28:659
-2.0539,-8.7545,2.3553,-0.12,-9.797,0.4184,3.9157,1.977,-1.5948,1.8777,-0.1396,-0.6653,0,29.53,-3.62,-71.04,186.89,87.46,16,0,50.101,12.924192,77.68568,0,2881.76449388159,0,137.09677,0,0 / 0,136339,2018-08-03 20:49:29:159
-0.1218,-8.7999,1.2875,0.9138,-9.6245,-1.6446,-1.0042,-6.681,2.38,-1.4225,-0.571,-0.889,0,33.98,3.49,-70.35,356.68,82.36,-150.79,0,57.874,12.924192,77.68568,0,2881.76449388159,0,137.09677,0,0 / 0,136839,2018-08-03 20:49:29:659
6.6023,-6.6104,-0.2771,-0.2946,-9.7553,-0.9576,6.2153,-9.7368,3.3343,1.4644,1.3635,0.3435,0,28.27,1.43,-69.17,39.29,84.14,162.9,0,52.386,12.924192,77.68568,0,2881.76449388159,0,137.09677,0,0 / 0,137339,2018-08-03 20:49:30:159
-1.3225,-18.9118,0.0557,-0.0854,-9.7929,-0.5112,-2.89,-3.9821,-2.0884,-3.2431,-0.8651,-0.7985,0,31.75,-0.37,-70.41,34.09,86.97,170.52,0,52.561,12.924192,77.68568,0,2881.76449388159,0,137.09677,0,0 / 0,137840,2018-08-03 20:49:30:660
-2.9972,-4.8076,5.2523,0.9334,-9.535,-2.0934,-2.7479,-5.0907,2.5589,-0.2369,-0.1215,0.4308,0,20.21,3.9,-70.26,347.8,75.58,-152.06,0,53.887,12.924192,77.68568,0,2881.76449388159,0,137.09677,0,0 / 0,138339,2018-08-03 20:49:31:159
-2.1018,-15.2954,-7.8608,-0.5336,-9.7475,0.9342,5.1657,-3.0531,-2.3773,-2.8755,-1.1005,-0.9348,0,34.25,-10.74,-74.75,177.25,76.52,27.14,0,52.868,12.924192,77.68568,0,2881.76449388159,0,137.09677,0,0 / 0,138839,2018-08-03 20:49:31:659
7.6498,-31.8932,-6.0388,1.2246,-9.4748,-2.2134,-1.6994,-0.121,-0.5716,0.2084,-1.1324,-0.3745,0,14.65,2.55,-75.28,342.33,75.02,-151.41,0,53.305,12.924192,77.68568,0,2881.76449388159,0,137.09677,0,0 / 0,139339,2018-08-03 20:49:32:159
4.3422,-14.8656,-0.9439,-1.0042,-9.3833,2.6676,3.8493,-2.4015,-3.6469,-0.0963,0.4058,-0.0741,0,38.84,-16.11,-76.94,186.17,73.1,20.63,0,52.998,12.924192,77.68568,0,2881.76449388159,0,137.09677,0,0 / 0,139839,2018-08-03 20:49:32:659
1.9109,-11.5425,-6.0915,1.4526,-9.4627,-2.1256,0.538,-10.7177,-10.0389,-0.3892,0.7126,-0.3809,0,24.8,4.82,-73.23,344.74,76.52,-146.01,0,54.937,12.924192,77.68568,0,2881.76449388159,0,137.09677,0,0 / 0,140339,2018-08-03 20:49:33:159
1.195,-12.9611,0.8015,-0.8108,-9.3245,2.9269,-0.0478,0.4012,-3.4178,1.2822,1.0673,0.4873,0,45.82,-14.46,-72.52,196.68,71.96,15.48,0,56.081,12.924192,77.68568,0,2881.76449388159,0,137.09677,0,0 / 0,140839,2018-08-03 20:49:33:659
-0.7431,-9.1447,-9.0698,1.2227,-9.5156,-2.0318,-3.3235,7.555,3.8416,1.0936,-2.3319,-0.1679,0,29.57,5.42,-75.31,350.78,73.8,-149.18,0,50.913,12.924192,77.68568,0,2881.76449388159,0,137.09677,0,0 / 0,141339,2018-08-03 20:49:34:159
1.0023,-8.9927,0.2101,-0.5339,-9.5617,2.1116,-0.2271,0.536,-1.5177,1.1501,1.127,0.2433,0,41.32,-9.84,-77.72,193.53,77.17,14.19,0,50.749,12.924192,77.68568,0,2881.76449388159,0,137.09677,0,0 / 0,141838,2018-08-03 20:49:34:658
-1.8516,-2.8587,1.048,1.5068,-9.3818,-2.4252,-2.5531,5.3144,4.9537,0.0625,-1.1985,-0.9008,0,35.6,10.91,-69.04,359.16,73.62,-151.61,0,49.038,12.924192,77.68568,0,2881.76449388159,0,137.09677,0,0 / 0,142339,2018-08-03 20:49:35:159
3.4492,-9.6152,0.3896,-0.22,-9.7742,0.7663,-0.0629,1.5093,-0.8893,1.7562,0.3057,-0.1008,0,36.27,-1.18,-76.35,137.75,88.41,67.6,0,56.737,12.924192,77.68568,0,2881.76449388159,0,137.09677,0,0 / 0,142839,2018-08-03 20:49:35:659
0.6851,-7.8626,0.3047,0.9425,-9.4758,-2.3431,0.1712,0.5251,4.6912,-1.2063,-1.1676,-0.8038,0,37.49,9.14,-70.56,6.49,77.9,-158.98,0,51.907,12.924192,77.68568,0,2881.76449388159,0,137.09677,0,0 / 0,143338,2018-08-03 20:49:36:158
2.6256,-7.221,-3.4171,-0.2061,-9.7939,0.4555,3.5367,1.9854,-1.7612,2.5669,0.8735,-0.594,0,30.17,1.54,-75.38,26.09,81.39,175.87,0,52.397,12.924192,77.68568,0,2881.76449388159,0,137.09677,0,0 / 0,143839,2018-08-03 20:49:36:659
2.4783,-10.2053,0.6327,0.5858,-9.6599,-1.5852,2.9477,-6.6494,3.7868,-1.6036,1.0045,-0.8027,0,41.61,5.56,-72.42,10,80.08,-159.72,0,58.551,12.924192,77.68568,0,2881.76449388159,0,137.09677,0,0 / 0,144339,2018-08-03 20:49:37:159
9.7208,-11.9567,0.574,-0.2331,-9.6543,-1.7061,-7.5009,11.119,7.7213,1.1341,1.1536,2.5081,0,28.4,7.17,-73.2,2.47,76.05,-161.47,0,56.5,12.924192,77.68568,0,2881.76449388159,0,137.09677,0,0 / 0,144838,2018-08-03 20:49:37:658
-1.7869,-14.8525,6.8001,-0.0724,-9.7976,-0.414,-1.478,-3.9479,-1.935,-3.3538,-1.1175,-0.9263,0,38.9,3.49,-72.15,183.53,84.21,24.94,0,56.72,12.924192,77.68568,0,2881.76449388159,0,137.09677,0,0 / 0,145340,2018-08-03 20:49:38:160
-10.4947,7.331,0.0329,1.2307,-9.3583,-2.6606,-1.138,-3.0908,-0.5525,-0.6246,1.0737,0.1389,0,26.24,11.95,-72.22,354.17,73.66,-154.29,0,60.064,12.924192,77.68568,0,2881.76449388159,0,137.09677,0,0 / 0,145839,2018-08-03 20:49:38:659
-1.7032,-16.5572,-6.2219,-0.9355,-9.5111,2.1986,6.2563,-2.9139,-2.3834,-0.5842,-0.3526,-0.3415,0,44.34,-4.62,-71.74,188.51,75.9,23.05,0,57.178,12.924192,77.68568,0,2881.76449388159,0,137.09677,0,0 / 0,146339,2018-08-03 20:49:39:159
-4.1536,-7.1252,-2.5193,1.3498,-9.468,-2.1691,1.0571,-8.7525,-9.7652,-0.3487,-1.1165,-0.0709,0,32.34,7.3,-66.13,348.45,76.22,-142.65,0,60.02,12.924192,77.68568,0,2881.76449388159,0,137.09677,0,0 / 0,146839,2018-08-03 20:49:39:659
3.5294,-11.0792,0.653,-1.0888,-9.401,2.5701,3.5505,-1.8819,-4.7768,0.7645,0.8202,0.6865,0,46.76,-8.04,-65.91,196.89,75.06,18.68,0,62.225,12.924192,77.68568,0,2881.76449388159,0,137.09677,0,0 / 0,147339,2018-08-03 20:49:40:159
-0.2642,-12.8737,-10.4465,1.2721,-9.4978,-2.0842,-3.6983,7.2862,3.5087,1.246,-1.6896,0.0612,0,29.5,1.43,-70.07,351.86,72.84,-148.98,0,62.293,12.924192,77.68568,0,2881.76449388159,0,137.09677,0,0 / 0,147839,2018-08-03 20:49:40:659
0.4732,-9.0956,0.6422,-0.4956,-9.5382,2.2245,0.9247,0.8842,-2.1901,1.3376,0.6093,0.1837,0,34.37,-12.86,-73.31,194.36,82.91,10.44,0,57.484,12.924192,77.68568,0,2881.76449388159,0,137.09677,0,0 / 0,148338,2018-08-03 20:49:41:158
-1.1166,-3.2119,1.7591,1.556,-9.2658,-2.8098,-2.5557,6.1805,5.0162,-0.0675,-1.0824,-1.1575,0,35.53,8.87,-71.44,2.19,71.89,-155.27,0,56.44,12.924192,77.68568,0,2881.76449388159,0,137.09677,0,0 / 0,148839,2018-08-03 20:49:41:659
2.1431,-10.3514,0.6219,-0.0223,-9.7492,1.0593,-2.82,1.269,-0.1869,1.8138,1.3891,-0.2733,0,37.21,-5.36,-76.44,199.76,87.88,6.16,0,55.049,12.924192,77.68568,0,2881.76449388159,0,137.09677,0,0 / 0,149338,2018-08-03 20:49:42:158
0.2912,-8.0266,-0.1718,1.0781,-9.558,-1.911,-0.2598,-5.4526,2.0056,-1.6025,-1.4829,-0.6643,0,40.25,7.36,-72.38,359.62,77.07,-150.57,0,49.943,12.924192,77.68568,0,2881.76449388159,0,137.09677,0,0 / 0,149839,2018-08-03 20:49:42:659
3.7784,-7.5945,-0.7368,-0.2482,-9.8024,-0.1501,8.0564,-4.974,1.4095,2.0407,0.9576,-0.1668,0,36.03,2.68,-75.1,52.13,83.83,153.5,0,54.349,12.924192,77.68568,0,2881.76449388159,0,137.09677,0,0 / 0,150339,2018-08-03 20:49:43:159
5.9152,-12.9132,-1.3653,0.1683,-9.7334,-1.1845,-2.0806,-4.057,2.9098,-2.7307,0.1278,-0.8358,0,43.75,5.82,-71.25,23.65,82.99,-171.91,0,57.354,12.924192,77.68568,0,2881.76449388159,0,137.09677,0,0 / 0,150839,2018-08-03 20:49:43:659
-0.9107,-21.3695,5.2499,0.9411,-9.574,-1.9033,-9.2854,8.959,6.1467,1.2023,0.262,1.2809,0,30.12,5.66,-72.65,349.98,72.98,-147.85,0,58.268,12.924192,77.68568,0,2881.76449388159,0,137.09677,0,0 / 0,151339,2018-08-03 20:49:44:159
1.0035,-15.3984,-4.789,-0.7267,-9.7256,1.0268,1.6319,-5.2056,-3.4828,-2.7328,-1.0738,-0.8549,0,52.23,-11.76,-76.05,189.34,73.12,25.08,0,56.265,12.924192,77.68568,0,2881.76449388159,0,137.09677,0,0 / 0,151840,2018-08-03 20:49:44:660
-0.2798,-8.6898,13.45,1.3241,-9.4285,-2.3495,-1.0097,-6.9532,-2.6039,-0.3189,-0.9662,-0.2307,0,25.72,12.56,-73.09,350.28,74.04,-150.6,0,58.319,12.924192,77.68568,0,2881.76449388159,0,137.09677,0,0 / 0,152340,2018-08-03 20:49:45:160
1.7613,-17.9207,-1.2432,-1.143,-9.3652,2.6753,4.2999,-3.2911,-3.9379,-0.304,0.0213,-0.0858,0,49.42,-11.15,-75.43,189.73,71.44,23.55,0,53.623,12.924192,77.68568,0,2881.76449388159,0,137.09677,0,0 / 0,152839,2018-08-03 20:49:45:659
-0.6964,-6.4919,-6.0962,1.1811,-9.4004,-2.5313,0.4552,-10.3052,-9.4559,-0.5064,-0.228,-0.4288,0,34.37,12.53,-74.62,358.93,75.44,-154.53,0,55.972,12.924192,77.68568,0,2881.76449388159,0,137.09677,0,0 / 0,153339,2018-08-03 20:49:46:159
0.3798,-12.9958,1.9231,-1.1065,-9.3034,2.8969,1.9562,-0.4784,-3.3242,1.1725,0.6317,0.6119,0,56.14,-10.58,-76.64,197.73,74.15,18.38,0,56.585,12.924192,77.68568,0,2881.76449388159,0,137.09677,0,0 / 0,153839,2018-08-03 20:49:46:659
2.5753,-29.6702,-17.4531,1.2207,-9.4939,-2.1319,-2.8965,6.632,1.9313,1.4739,-2.5652,-0.1008,0,41.7,14.48,-70.78,0.8,75.49,-150.21,0,52.645,12.924192,77.68568,0,2881.76449388159,0,137.09677,0,0 / 0,154338,2018-08-03 20:49:47:158
-0.6054,-10.3286,-0.2221,-0.8545,-9.3574,2.8069,2.5537,0.0509,-3.5548,1.1693,1.0887,0.4138,0,51.03,0.36,-69.62,202.46,75,14.31,0,56.955,12.924192,77.68568,0,2881.76449388159,0,137.09677,0,0 / 0,154840,2018-08-03 20:49:47:660
-1.7582,-2.0291,2.4834,1.3757,-9.3699,-2.5463,-3.3362,7.2345,4.8102,1.0382,-2.3809,-0.3468,0,26.83,11.12,-61.31,355.31,70.83,-151.44,0,54.941,12.924192,77.68568,0,2881.76449388159,0,137.09677,0,0 / 0,155339,2018-08-03 20:49:48:159
-0.6928,-8.624,1.0002,-0.3804,-9.6185,1.8734,-1.0615,1.0853,-0.1093,1.6263,1.3241,0.3829,0,34.83,-3.68,-69.89,200.53,82.55,6.06,0,55.293,12.924192,77.68568,0,2881.76449388159,0,137.09677,0,0 / 0,155838,2018-08-03 20:49:48:658
-2.1161,-2.405,2.6677,1.4546,-9.2424,-2.9382,-0.7649,5.5777,6.1114,-0.451,-1.2262,-0.9487,0,29.22,9.1,-65.49,357.67,70.47,-153.66,0,48.341,12.924192,77.68568,0,2881.76449388159,0,137.09677,0,0 / 0,156339,2018-08-03 20:49:49:159
0.1272,-8.6395,2.0105,-0.096,-9.7246,1.2624,-0.4138,1.3026,0.0532,1.6018,0.9491,0.1123,0,36.92,-3.62,-74.04,205.7,86.23,0.83,0,57.475,12.924192,77.68568,0,2881.76449388159,0,137.09677,0,0 / 0,156839,2018-08-03 20:49:49:659
1.4668,-5.4516,3.3501,0.9507,-9.4876,-2.2918,-0.715,1.6116,5.2837,-1.4843,-1.5213,-0.6185,0,44.18,7.2,-65.91,7.76,78.55,-154.05,0,54.694,12.924192,77.68568,0,2881.76449388159,0,137.09677,0,0 / 0,157338,2018-08-03 20:49:50:158
-2.7327,-8.5785,0.0461,-0.2673,-9.8003,-0.2318,6.6442,-10.5727,3.2795,2.209,1.5904,-0.3596,0,36.51,-0.1,-70.72,54.69,82.72,153.06,0,55.093,12.924192,77.68568,0,2881.76449388159,0,137.09677,0,0 / 0,157838,2018-08-03 20:49:50:658
3.5414,-12.6989,3.2328,0.7741,-9.625,-1.7116,-0.6254,-7.7784,2.3773,-1.5163,1.095,-1.1181,0,44.57,3.42,-71,56.05,88.09,156.28,0,55.644,12.924192,77.68568,0,2881.76449388159,0,137.09677,0,0 / 0,158339,2018-08-03 20:49:51:159
6.5461,-22.6743,5.2319,0.2715,-9.6063,-1.9532,-9.0862,9.704,7.1275,1.5443,0.8969,2.1768,0,35.23,4.72,-72.4,18.13,78.4,-172.09,0,59.269,12.924192,77.68568,0,2881.76449388159,0,137.09677,0,0 / 0,158838,2018-08-03 20:49:51:658
-1.9725,-17.0875,3.89,-0.2717,-9.7973,0.3313,-2.5692,-3.747,-3.5148,-3.4284,-0.9098,-0.6792,0,47.15,-4.93,-72.35,195.78,79.58,17.44,0,56.254,12.924192,77.68568,0,2881.76449388159,0,137.09677,0,0 / 0,159338,2018-08-03 20:49:52:158
-8.8834,6.1686,5.3612,1.0239,-9.2746,-3.0171,-0.501,-4.2508,-2.097,-0.3615,0.4601,0.1368,0,35.87,8.91,-73.21,7.64,71.04,-161.26,0,57.253,12.924192,77.68568,0,2881.76449388159,0,137.09677,0,0 / 0,159839,2018-08-03 20:49:52:659
-2.7566,-18.3923,-7.5663,-0.9677,-9.4902,2.2737,6.8111,-4.7467,-2.2001,-0.6182,-0.7841,-0.089,0,53.57,-9.16,-72.17,191.7,73.51,25.3,0,55.891,12.924192,77.68568,0,2881.76449388159,0,137.09677,0,0 / 0,160338,2018-08-03 20:49:53:158
9.6095,-31.6885,-8.7071,1.4249,-9.305,-2.749,0.6645,-10.0746,-6.6688,-0.1506,-1.9101,-0.5439,0,29.55,9.8,-70.8,355.46,71.59,-152.6,0,57.926,12.924192,77.68568,0,2881.76449388159,0,137.09677,0,0 / 0,160839,2018-08-03 20:49:53:659
4.4799,-11.4048,-3.0161,-0.9725,-9.4047,2.6031,4.4603,-1.9401,-3.6317,0.0944,0.5113,-0.0475,0,45.22,-11.21,-70.68,191.58,73.21,20.83,0,55.203,12.924192,77.68568,0,2881.76449388159,0,137.09677,0,0 / 0,161339,2018-08-03 20:49:54:159
5.2903,-20.4825,-4.728,1.4875,-9.3605,-2.5178,0.5598,-10.0688,-8.0406,-0.4787,1.2985,-0.1583,0,24.69,5.93,-69.36,352.19,71.78,-152.46,0,53.82,12.924192,77.68568,0,2881.76449388159,0,137.09677,0,0 / 0,161839,2018-08-03 20:49:54:659
2.8147,-13.0042,-2.4678,-0.4394,-9.4305,2.654,-0.2108,0.5281,-3.6942,1.2428,0.8873,0.629,0,41.49,-11.13,-73.32,199.92,74.08,9.4,0,58.06,12.924192,77.68568,0,2881.76449388159,0,137.09677,0,0 / 0,162338,2018-08-03 20:49:55:158
-2.9553,-2.3057,1.0313,1.418,-9.2644,-2.8863,-2.3493,7.0866,5.5181,1.1469,-2.4235,-0.2414,0,28.11,8.62,-70.81,354.19,68.49,-152.82,0,53.576,12.924192,77.68568,0,2881.76449388159,0,137.09677,0,0 / 0,162838,2018-08-03 20:49:55:658
-0.8819,-8.3486,-0.2328,-0.1767,-9.6001,1.9944,3.3959,0.8532,-2.6504,1.5485,1.4647,-0.0784,0,42.03,-9.87,-76.55,202.31,81.42,6.15,0,58.126,12.924192,77.68568,0,2881.76449388159,0,137.09677,0,0 / 0,163339,2018-08-03 20:49:56:159
-2.2035,-2.6899,1.8106,1.4775,-9.2968,-2.749,-1.1665,3.9759,5.0086,-0.7652,-0.5519,-0.807,0,36.08,9.46,-71.14,0.37,73.51,-153.48,0,55.654,12.924192,77.68568,0,2881.76449388159,0,137.09677,0,0 / 0,163839,2018-08-03 20:49:56:659
2.3562,-9.8498,-0.6746,0.2115,-9.7681,0.842,-2.2687,1.8721,0.1358,1.6305,0.8916,-0.0997,0,37.61,-4.51,-74.65,220.89,84.92,-14.1,0,52.654,12.924192,77.68568,0,2881.76449388159,0,137.09677,0,0 / 0,164339,2018-08-03 20:49:57:159
2.44,-5.9161,3.4231,0.9552,-9.341,-2.8291,0.2914,4.3579,5.2661,-1.3692,-0.6392,-0.3394,0,40.63,7.91,-70.01,9.9,75.15,-159.46,0,53.107,12.924192,77.68568,0,2881.76449388159,0,137.09677,0,0 / 0,164838,2018-08-03 20:49:57:658
-0.7143,-7.4017,-0.2376,-0.2028,-9.8,-0.2978,6.6241,-4.349,0.8874,2.6596,1.1749,0.5203,0,42.26,-1.5,-77.58,62.59,87.89,145.75,0,51.441,12.924192,77.68568,0,2881.76449388159,0,137.09677,0,0 / 0,165340,2018-08-03 20:49:58:160
-1.174,-7.8135,-0.3011,0.8043,-9.6238,-1.7047,-1.1395,-6.8166,4.2823,-1.2894,0.3909,-1.0041,0,49.4,5.13,-68.93,17.49,81.96,-162.09,0,55.737,12.924192,77.68568,0,2881.76449388159,0,137.09677,0,0 / 0,165839,2018-08-03 20:49:58:659
3.4803,-29.5529,6.4769,-0.3818,-9.6788,-1.5313,-4.6356,0.5947,7.4249,1.2875,1.2421,2.702,0,33.16,6.2,-71.18,0.57,71.97,-155.63,0,56.494,12.924192,77.68568,0,2881.76449388159,0,137.09677,0,0 / 0,166339,2018-08-03 20:49:59:159
-2.9541,-19.6995,-1.242,-0.1636,-9.7951,-0.4464,-2.9712,-5.1132,-3.4893,-3.4401,-1.0397,-0.7538,0,46.72,-1.66,-71.4,53.71,87.22,159.88,0,55.458,12.924192,77.68568,0,2881.76449388159,0,137.09677,0,0 / 0,166839,2018-08-03 20:49:59:659
-2.0898,-3.5243,7.3424,0.8914,-9.2711,-3.0696,-6.222,-2.1017,3.4456,-0.1644,-0.1513,0.6087,0,30.83,5.67,-73.84,0.83,70.34,-158.07,0,54.395,12.924192,77.68568,0,2881.76449388159,0,137.09677,0,0 / 0,167339,2018-08-03 20:50:00:159
3.3378,-17.6537,-4.3353,-0.995,-9.5847,1.8202,5.0317,-1.6,-2.8127,-1.4406,-0.4475,-0.3127,0,60.94,-10.36,-74.6,191.93,74.11,27.3,0,53.027,12.924192,77.68568,0,2881.76449388159,0,137.09677,0,0 / 0,167839,2018-08-03 20:50:00:659
3.0338,-15.1889,-3.7236,1.2153,-9.3963,-2.5305,-2.3754,1.8668,-0.608,0.202,-0.7063,0.0612,0,35.41,10.64,-70.52,357.82,74.37,-151.58,0,55.651,12.924192,77.68568,0,2881.76449388159,0,137.09677,0,0 / 0,168339,2018-08-03 20:50:01:159
5.9846,-13.7847,0.3609,-1.0791,-9.3325,2.8124,5.2933,-2.4285,-4.8929,0.1147,0.9193,-0.1284,0,56.54,-11.35,-68.39,199.12,72.11,20.99,0,58.011,12.924192,77.68568,0,2881.76449388159,0,137.09677,0,0 / 0,168839,2018-08-03 20:50:01:659
5.4352,-29.9108,-3.8804,1.014,-9.4526,-2.4065,1.5531,-8.8751,-8.9383,-0.777,0.262,0.1656,0,38.81,6.47,-71.8,1.12,76.58,-152.67,0,58.239,12.924192,77.68568,0,2881.76449388159,0,137.09677,0,0 / 0,169340,2018-08-03 20:50:02:160
0.3631,-13.9283,-2.8904,-1.0939,-9.2666,3.0174,1.9199,-2.516,-6.185,0.7943,1.4743,0.4223,0,50.83,-12.1,-73.09,195.15,70.9,19.93,0,57.484,12.924192,77.68568,0,2881.76449388159,0,137.09677,0,0 / 0,169839,2018-08-03 20:50:02:659
3.8694,-11.2432,-14.44,1.3293,-9.3997,-2.4595,-2.8262,7.2855,3.7472,1.0393,-2.1988,-0.2083,0,36.45,9.74,-70.54,358.05,71.38,-151.19,0,56.558,12.924192,77.68568,0,2881.76449388159,0,137.09677,0,0 / 0,170340,2018-08-03 20:50:03:160
1.3483,-8.9185,-2.2164,-0.7012,-9.5263,2.2202,2.0042,0.7279,-2.3637,1.1618,1.2953,0.3829,0,49.09,-4.63,-73.24,202,82.07,11.89,0,58.816,12.924192,77.68568,0,2881.76449388159,0,137.09677,0,0 / 0,170839,2018-08-03 20:50:03:659
-1.356,-1.4019,2.6007,1.5574,-9.4187,-2.2436,-2.8363,6.6257,4.8799,0.3607,-1.925,-0.8944,0,36.78,8.5,-68.21,356.82,73.92,-148.31,0,58.914,12.924192,77.68568,0,2881.76449388159,0,137.09677,0,0 / 0,171339,2018-08-03 20:50:04:159
1.0861,-9.1794,-1.9962,-0.3413,-9.6973,1.42,-0.0309,2.264,-0.7953,1.688,0.8852,0.0345,0,38.49,-4.54,-73.18,187.55,85.08,19.93,0,56.063,12.924192,77.68568,0,2881.76449388159,0,137.09677,0,0 / 0,171839,2018-08-03 20:50:04:659
-0.9502,-2.1788,1.3701,1.35,-9.3553,-2.6128,-1.6733,5.566,4.833,-0.924,-0.4816,-0.6856,0,40.29,7.89,-68.83,2.82,72.55,-152.68,0,59.811,12.924192,77.68568,0,2881.76449388159,0,137.09677,0,0 / 0,172339,2018-08-03 20:50:05:159
-3.585,-8.8778,2.4247,-0.0218,-9.7555,1.0004,-2.4463,1.5677,0.5507,1.753,0.9171,-0.53,0,41.55,-2.44,-75.23,182.06,87.93,27.19,0,55.409,12.924192,77.68568,0,2881.76449388159,0,137.09677,0,0 / 0,172839,2018-08-03 20:50:05:659
0.1631,-7.7357,0.4746,0.8585,-9.5944,-1.8389,1.1134,-2.6351,2.3971,-1.1818,-0.1119,-1.1191,0,50.87,6.9,-68.32,11.89,78.06,-154.97,0,57.387,12.924192,77.68568,0,2881.76449388159,0,137.09677,0,0 / 0,173339,2018-08-03 20:50:06:159
3.0134,-7.7549,0.1251,-0.6829,-9.7275,-1.0392,-2.9385,-2.3893,6.5075,1.6124,1.0396,1.2553,0,47.71,2.52,-72.22,41.06,79.69,172.85,0,57.685,12.924192,77.68568,0,2881.76449388159,0,137.09677,0,0 / 0,173839,2018-08-03 20:50:06:659
-2.9398,-19.1453,-1.6706,0.363,-9.7137,-1.2968,-2.8715,-6.2551,5.3262,-2.2577,1.1313,-1.1032,0,55.18,3.3,-69.29,23.01,82.11,-164.36,0,56.408,12.924192,77.68568,0,2881.76449388159,0,137.09677,0,0 / 0,174338,2018-08-03 20:50:07:158
-4.4301,-19.9414,3.234,0.0154,-9.6281,-1.863,-5.4916,-1.5106,7.0071,1.5464,1.3198,2.4676,0,48.58,8.2,-72.71,14.61,73.79,-160.55,0,61.782,12.924192,77.68568,0,2881.76449388159,0,137.09677,0,0 / 0,174839,2018-08-03 20:50:07:659
-1.1561,-15.6306,5.1721,-0.4931,-9.7452,0.9785,0.9285,-5.1364,-5.415,-2.4612,-0.8725,-0.889,0,58.76,-7.14,-70.68,195.36,77.16,24.48,0,68.612,12.924192,77.68568,0,2881.76449388159,0,137.09677,0,0 / 0,175339,2018-08-03 20:50:08:159
4.8151,-26.4141,-8.1193,1.5784,-9.35,-2.5013,0.7831,-1.738,-2.1479,0.2734,0.1342,-0.0656,0,36.23,8.54,-70.27,356.47,72.14,-149.3,0,69.956,12.924192,77.68568,0,2881.76449388159,0,137.09677,0,0 / 0,175839,2018-08-03 20:50:08:659
4.8618,-13.7021,-0.2424,-0.9036,-9.4054,2.6252,3.4363,-1.8796,-3.5607,-0.3082,0.393,0.0825,0,54.08,-10.06,-71.89,201.39,72.43,15.69,0,64.68,12.924192,77.68568,0,2881.76449388159,0,137.09677,0,0 / 0,176339,2018-08-03 20:50:09:159
-3.4725,-2.745,-5.882,1.0014,-9.4813,-2.2964,-1.9547,3.6633,-1.2469,-0.1932,-0.0895,0.1581,0,41.19,9.1,-70.29,6.83,75.2,-156.44,0,49.114,12.924192,77.68568,0,2881.76449388159,0,137.09677,0,0 / 0,176839,2018-08-03 20:50:09:659
0.7461,-12.426,1.6275,-0.9817,-9.3939,2.6386,1.3672,-0.002,-4.3346,1.2151,0.7637,0.6162,0,53.75,-9.15,-72.47,199.91,75.95,17.04,0,53.619,12.924192,77.68568,0,2881.76449388159,0,137.09677,0,0 / 0,177339,2018-08-03 20:50:10:159
-1.6409,-2.6061,0.1012,1.4463,-9.4239,-2.2955,-2.8116,6.144,1.6532,1.5975,-2.1519,-0.1966,0,39.37,7.67,-72.67,357.59,71,-149.53,0,57.382,12.924192,77.68568,0,2881.76449388159,0,137.09677,0,0 / 0,177839,2018-08-03 20:50:10:659
-1.7067,-8.0745,2.0488,-0.2307,-9.6789,1.5609,0.7135,0.6945,-2.4825,1.3323,0.8735,0.3712,0,50.09,-7.04,-72.11,211.9,83.59,2.76,0,60.733,12.924192,77.68568,0,2881.76449388159,0,137.09677,0,0 / 0,178339,2018-08-03 20:50:11:159
-2.3221,-2.1225,0.6207,1.5844,-9.3193,-2.6097,-2.1836,2.8447,4.6468,-0.5501,-0.5401,-0.9348,0,44.35,7.22,-66.8,2.08,71.86,-148.74,0,57.555,12.924192,77.68568,0,2881.76449388159,0,137.09677,0,0 / 0,178838,2018-08-03 20:50:11:658
-3.5874,-7.4592,2.0716,0.086,-9.7703,0.839,-0.9466,1.5742,-0.715,1.8468,1.4157,-0.3607,0,41.84,-5.2,-71.73,206.89,89.23,3.35,0,57.529,12.924192,77.68568,0,2881.76449388159,0,137.09677,0,0 / 0,179339,2018-08-03 20:50:12:159
1.104,-7.0187,3.69,1.0211,-9.5642,-1.9114,0.5907,-5.0217,3.3723,-1.169,-0.6104,-1.1958,0,49.68,2.76,-70.16,13.63,80.43,-157.98,0,63.063,12.924192,77.68568,0,2881.76449388159,0,137.09677,0,0 / 0,179839,2018-08-03 20:50:12:659
4.5302,-6.0897,-3.5512,-0.3807,-9.7749,-0.6908,3.2583,-9.8041,6.5173,2.1802,0.3451,1.7539,0,46.55,-0.7,-74.63,25.17,80.27,-172.73,0,63.238,12.924192,77.68568,0,2881.76449388159,0,137.09677,0,0 / 0,180339,2018-08-03 20:50:13:159
0.4301,-19.0447,-3.1993,0.6355,-9.6954,-1.3285,0.2933,-6.6024,1.6807,-1.8518,1.2218,-1.3407,0,52.61,0.04,-69.34,189.03,86.68,28.51,0,60.591,12.924192,77.68568,0,2881.76449388159,0,137.09677,0,0 / 0,180839,2018-08-03 20:50:13:659
-4.4194,-18.0188,4.716,0.1536,-9.6193,-1.9013,-10.3927,11.8914,7.0895,1.4036,1.6106,2.8479,0,49.16,3.4,-71.62,8.5,73.2,-153.99,0,67.582,12.924192,77.68568,0,2881.76449388159,0,137.09677,0,0 / 0,181339,2018-08-03 20:50:14:159
0.4816,-16.1118,6.0938,-0.2211,-9.7415,1.1066,4.0564,-4.9716,-1.6982,-2.5922,-1.3764,-0.8347,0,56,-10.99,-71.04,199.89,76.96,18.31,0,67.683,12.924192,77.68568,0,2881.76449388159,0,137.09677,0,0 / 0,181840,2018-08-03 20:50:14:660
-4.6648,7.0245,4.3377,1.19,-9.3689,-2.6418,0.0895,-1.6759,-0.6104,0.2681,1.7832,0.2369,0,39.1,10.66,-72.61,3.88,72.82,-155.75,0,64.447,12.924192,77.68568,0,2881.76449388159,0,137.09677,0,0 / 0,182339,2018-08-03 20:50:15:159
4.7013,-16.5021,-0.2879,-1.087,-9.5015,2.1705,4.9187,-4.9678,-3.4551,-1.0497,-0.4922,-0.1647,0,54.59,-11.94,-68.09,193.57,71.91,25.47,0,64.152,12.924192,77.68568,0,2881.76449388159,0,137.09677,0,0 / 0,182839,2018-08-03 20:50:15:659
-3.8603,-5.8419,-2.8952,1.1418,-9.4187,-2.481,2.5406,-10.6773,-6.829,-0.6704,-0.1268,-0.6068,0,33.51,6.53,-72.95,0.26,73.83,-155.29,0,64.991,12.924192,77.68568,0,2881.76449388159,0,137.09677,0,0 / 0,183339,2018-08-03 20:50:16:159
3.3438,-10.5776,-1.3928,-1.1794,-9.3254,2.7957,0.5135,0.427,-3.5161,0.5844,1.111,0.4713,0,51.16,-13.95,-70.18,197.59,73.29,18.38,0,67.768,12.924192,77.68568,0,2881.76449388159,0,137.09677,0,0 / 0,183838,2018-08-03 20:50:16:658
6.3186,-17.8237,-20.1993,1.2353,-9.5261,-1.9742,-2.1657,5.7653,1.6529,1.0063,-0.8384,0.2636,0,46.64,1.94,-72.22,1.13,76.26,-147.96,0,57.941,12.924192,77.68568,0,2881.76449388159,0,137.09677,0,0 / 0,184339,2018-08-03 20:50:17:159
-2.2766,-18.0056,4.7818,0.8484,-9.4181,-2.598,-3.4633,0.1145,4.1794,0.7911,-0.6307,0.9496,0,46.95,1.09,-74.6,14.5,73.82,-161.92,0,55.318,12.924192,77.68568,0,2881.76449388159,0,137.09677,0,0 / 0,184839,2018-08-03 20:50:17:659
-2.2766,-18.0056,4.7818,0.8484,-9.4181,-2.598,-3.4633,0.1145,4.1794,0.7911,-0.6307,0.9496,0,46.95,1.09,-74.6,14.5,73.82,-161.92,0,64.443,12.924192,77.68568,0,2881.76449388159,0,137.09677,0,0 / 0,185339,2018-08-03 20:50:18:159
-2.2766,-18.0056,4.7818,0.8484,-9.4181,-2.598,-3.4633,0.1145,4.1794,0.7911,-0.6307,0.9496,0,46.95,1.09,-74.6,14.5,73.82,-161.92,0,59.311,12.924192,77.68568,0,2881.76449388159,0,137.09677,0,0 / 0,185839,2018-08-03 20:50:18:659
-2.2766,-18.0056,4.7818,0.8484,-9.4181,-2.598,-3.4633,0.1145,4.1794,0.7911,-0.6307,0.9496,0,46.95,1.09,-74.6,14.5,73.82,-161.92,0,68.167,12.924192,77.68568,0,2881.76449388159,0,137.09677,0,0 / 0,186338,2018-08-03 20:50:19:158
-2.2766,-18.0056,4.7818,0.8484,-9.4181,-2.598,-3.4633,0.1145,4.1794,0.7911,-0.6307,0.9496,0,46.95,1.09,-74.6,14.5,73.82,-161.92,0,66.37,12.924192,77.68568,0,2881.76449388159,0,137.09677,0,0 / 0,186840,2018-08-03 20:50:19:660
-2.2766,-18.0056,4.7818,0.8484,-9.4181,-2.598,-3.4633,0.1145,4.1794,0.7911,-0.6307,0.9496,0,46.95,1.09,-74.6,14.5,73.82,-161.92,0,62.094,12.924192,77.68568,0,2881.76449388159,0,137.09677,0,0 / 0,187339,2018-08-03 20:50:20:159
-2.2766,-18.0056,4.7818,0.8484,-9.4181,-2.598,-3.4633,0.1145,4.1794,0.7911,-0.6307,0.9496,0,46.95,1.09,-74.6,14.5,73.82,-161.92,0,66.29,12.924192,77.68568,0,2881.76449388159,0,137.09677,0,0 / 0,187839,2018-08-03 20:50:20:659
-2.2766,-18.0056,4.7818,0.8484,-9.4181,-2.598,-3.4633,0.1145,4.1794,0.7911,-0.6307,0.9496,0,46.95,1.09,-74.6,14.5,73.82,-161.92,0,61.782,12.924192,77.68568,0,2881.76449388159,0,137.09677,0,0 / 0,188339,2018-08-03 20:50:21:159
-2.2766,-18.0056,4.7818,0.8484,-9.4181,-2.598,-3.4633,0.1145,4.1794,0.7911,-0.6307,0.9496,0,46.95,1.09,-74.6,14.5,73.82,-161.92,0,66.227,12.924192,77.68568,0,2881.76449388159,0,137.09677,0,0 / 0,188839,2018-08-03 20:50:21:659
-2.2766,-18.0056,4.7818,0.8484,-9.4181,-2.598,-3.4633,0.1145,4.1794,0.7911,-0.6307,0.9496,0,46.95,1.09,-74.6,14.5,73.82,-161.92,0,58.933,12.924192,77.68568,0,2881.76449388159,0,137.09677,0,0 / 0,189340,2018-08-03 20:50:22:160
-2.2766,-18.0056,4.7818,0.8484,-9.4181,-2.598,-3.4633,0.1145,4.1794,0.7911,-0.6307,0.9496,0,46.95,1.09,-74.6,14.5,73.82,-161.92,0,56.317,12.924192,77.68568,0,2881.76449388159,0,137.09677,0,0 / 0,189839,2018-08-03 20:50:22:659
-2.2766,-18.0056,4.7818,0.8484,-9.4181,-2.598,-3.4633,0.1145,4.1794,0.7911,-0.6307,0.9496,0,46.95,1.09,-74.6,14.5,73.82,-161.92,0,60.054,12.924192,77.68568,0,2881.76449388159,0,137.09677,0,0 / 0,190339,2018-08-03 20:50:23:159
-2.2766,-18.0056,4.7818,0.8484,-9.4181,-2.598,-3.4633,0.1145,4.1794,0.7911,-0.6307,0.9496,0,46.95,1.09,-74.6,14.5,73.82,-161.92,0,63.092,12.924192,77.68568,0,2881.76449388159,0,137.09677,0,0 / 0,190840,2018-08-03 20:50:23:660
-2.2766,-18.0056,4.7818,0.8484,-9.4181,-2.598,-3.4633,0.1145,4.1794,0.7911,-0.6307,0.9496,0,46.95,1.09,-74.6,14.5,73.82,-161.92,0,62.271,12.924192,77.68568,0,2881.76449388159,0,137.09677,0,0 / 0,191339,2018-08-03 20:50:24:159
-2.2766,-18.0056,4.7818,0.8484,-9.4181,-2.598,-3.4633,0.1145,4.1794,0.7911,-0.6307,0.9496,0,46.95,1.09,-74.6,14.5,73.82,-161.92,0,62.322,12.924192,77.68568,0,2881.76449388159,0,137.09677,0,0 / 0,191839,2018-08-03 20:50:24:659
-2.2766,-18.0056,4.7818,0.8484,-9.4181,-2.598,-3.4633,0.1145,4.1794,0.7911,-0.6307,0.9496,0,46.95,1.09,-74.6,14.5,73.82,-161.92,0,62.933,12.924192,77.68568,0,2881.76449388159,0,137.09677,0,0 / 0,192339,2018-08-03 20:50:25:159
-2.2766,-18.0056,4.7818,0.8484,-9.4181,-2.598,-3.4633,0.1145,4.1794,0.7911,-0.6307,0.9496,0,46.95,1.09,-74.6,14.5,73.82,-161.92,0,57.856,12.924192,77.68568,0,2881.76449388159,0,137.09677,0,0 / 0,192839,2018-08-03 20:50:25:659
-2.2766,-18.0056,4.7818,0.8484,-9.4181,-2.598,-3.4633,0.1145,4.1794,0.7911,-0.6307,0.9496,0,46.95,1.09,-74.6,14.5,73.82,-161.92,0,53.587,12.924192,77.68568,0,2881.76449388159,0,137.09677,0,0 / 0,193339,2018-08-03 20:50:26:159
-2.2766,-18.0056,4.7818,0.8484,-9.4181,-2.598,-3.4633,0.1145,4.1794,0.7911,-0.6307,0.9496,0,46.95,1.09,-74.6,14.5,73.82,-161.92,0,61.584,12.924192,77.68568,0,2881.76449388159,0,137.09677,0,0 / 0,193839,2018-08-03 20:50:26:659
-2.2766,-18.0056,4.7818,0.8484,-9.4181,-2.598,-3.4633,0.1145,4.1794,0.7911,-0.6307,0.9496,0,46.95,1.09,-74.6,14.5,73.82,-161.92,0,57.077,12.924192,77.68568,0,2881.76449388159,0,137.09677,0,0 / 0,194339,2018-08-03 20:50:27:159
-2.2766,-18.0056,4.7818,0.8484,-9.4181,-2.598,-3.4633,0.1145,4.1794,0.7911,-0.6307,0.9496,0,46.95,1.09,-74.6,14.5,73.82,-161.92,0,55.269,12.924192,77.68568,0,2881.76449388159,0,137.09677,0,0 / 0,194839,2018-08-03 20:50:27:659
-2.2766,-18.0056,4.7818,0.8484,-9.4181,-2.598,-3.4633,0.1145,4.1794,0.7911,-0.6307,0.9496,0,46.95,1.09,-74.6,14.5,73.82,-161.92,0,54.431,12.924192,77.68568,0,2881.76449388159,0,137.09677,0,0 / 0,195338,2018-08-03 20:50:28:158
-2.2766,-18.0056,4.7818,0.8484,-9.4181,-2.598,-3.4633,0.1145,4.1794,0.7911,-0.6307,0.9496,0,46.95,1.09,-74.6,14.5,73.82,-161.92,0,52.554,12.924192,77.68568,0,2881.76449388159,0,137.09677,0,0 / 0,195839,2018-08-03 20:50:28:659
-2.2766,-18.0056,4.7818,0.8484,-9.4181,-2.598,-3.4633,0.1145,4.1794,0.7911,-0.6307,0.9496,0,46.95,1.09,-74.6,14.5,73.82,-161.92,0,53.961,12.924192,77.68568,0,2881.76449388159,0,137.09677,0,0 / 0,196338,2018-08-03 20:50:29:158
-2.2766,-18.0056,4.7818,0.8484,-9.4181,-2.598,-3.4633,0.1145,4.1794,0.7911,-0.6307,0.9496,0,46.95,1.09,-74.6,14.5,73.82,-161.92,0,51.318,12.924192,77.68568,0,2881.76449388159,0,137.09677,0,0 / 0,196839,2018-08-03 20:50:29:659
-2.2766,-18.0056,4.7818,0.8484,-9.4181,-2.598,-3.4633,0.1145,4.1794,0.7911,-0.6307,0.9496,0,46.95,1.09,-74.6,14.5,73.82,-161.92,0,50.448,12.924192,77.68568,0,2881.76449388159,0,137.09677,0,0 / 0,197339,2018-08-03 20:50:30:159
-2.2766,-18.0056,4.7818,0.8484,-9.4181,-2.598,-3.4633,0.1145,4.1794,0.7911,-0.6307,0.9496,0,46.95,1.09,-74.6,14.5,73.82,-161.92,0,55.436,12.924192,77.68568,0,2881.76449388159,0,137.09677,0,0 / 0,197839,2018-08-03 20:50:30:659
-2.2766,-18.0056,4.7818,0.8484,-9.4181,-2.598,-3.4633,0.1145,4.1794,0.7911,-0.6307,0.9496,0,46.95,1.09,-74.6,14.5,73.82,-161.92,0,58.777,12.924192,77.68568,0,2881.76449388159,0,137.09677,0,0 / 0,198339,2018-08-03 20:50:31:159
-2.2766,-18.0056,4.7818,0.8484,-9.4181,-2.598,-3.4633,0.1145,4.1794,0.7911,-0.6307,0.9496,0,46.95,1.09,-74.6,14.5,73.82,-161.92,0,59.117,12.924192,77.68568,0,2881.76449388159,0,137.09677,0,0 / 0,198839,2018-08-03 20:50:31:659
-2.2766,-18.0056,4.7818,0.8484,-9.4181,-2.598,-3.4633,0.1145,4.1794,0.7911,-0.6307,0.9496,0,46.95,1.09,-74.6,14.5,73.82,-161.92,0,59.864,12.924192,77.68568,0,2881.76449388159,0,137.09677,0,0 / 0,199339,2018-08-03 20:50:32:159
-2.2766,-18.0056,4.7818,0.8484,-9.4181,-2.598,-3.4633,0.1145,4.1794,0.7911,-0.6307,0.9496,0,46.95,1.09,-74.6,14.5,73.82,-161.92,0,60.345,12.924192,77.68568,0,2881.76449388159,0,137.09677,0,0 / 0,199839,2018-08-03 20:50:32:659
-2.2766,-18.0056,4.7818,0.8484,-9.4181,-2.598,-3.4633,0.1145,4.1794,0.7911,-0.6307,0.9496,0,46.95,1.09,-74.6,14.5,73.82,-161.92,0,58.407,12.924192,77.68568,0,2881.76449388159,0,137.09677,0,0 / 0,200339,2018-08-03 20:50:33:159
-2.2766,-18.0056,4.7818,0.8484,-9.4181,-2.598,-3.4633,0.1145,4.1794,0.7911,-0.6307,0.9496,0,46.95,1.09,-74.6,14.5,73.82,-161.92,0,58.571,12.924192,77.68568,0,2881.76449388159,0,137.09677,0,0 / 0,200839,2018-08-03 20:50:33:659
-2.2766,-18.0056,4.7818,0.8484,-9.4181,-2.598,-3.4633,0.1145,4.1794,0.7911,-0.6307,0.9496,0,46.95,1.09,-74.6,14.5,73.82,-161.92,0,59.169,12.924192,77.68568,0,2881.76449388159,0,137.09677,0,0 / 0,201339,2018-08-03 20:50:34:159
-2.2766,-18.0056,4.7818,0.8484,-9.4181,-2.598,-3.4633,0.1145,4.1794,0.7911,-0.6307,0.9496,0,46.95,1.09,-74.6,14.5,73.82,-161.92,0,61.253,12.924192,77.68568,0,2881.76449388159,0,137.09677,0,0 / 0,201839,2018-08-03 20:50:34:659
-2.2766,-18.0056,4.7818,0.8484,-9.4181,-2.598,-3.4633,0.1145,4.1794,0.7911,-0.6307,0.9496,0,46.95,1.09,-74.6,14.5,73.82,-161.92,0,58.7,12.924192,77.68568,0,2881.76449388159,0,137.09677,0,0 / 0,202339,2018-08-03 20:50:35:159
-2.2766,-18.0056,4.7818,0.8484,-9.4181,-2.598,-3.4633,0.1145,4.1794,0.7911,-0.6307,0.9496,0,46.95,1.09,-74.6,14.5,73.82,-161.92,0,63.462,12.924192,77.68568,0,2881.76449388159,0,137.09677,0,0 / 0,202839,2018-08-03 20:50:35:659
-2.2766,-18.0056,4.7818,0.8484,-9.4181,-2.598,-3.4633,0.1145,4.1794,0.7911,-0.6307,0.9496,0,46.95,1.09,-74.6,14.5,73.82,-161.92,0,59.824,12.924192,77.68568,0,2881.76449388159,0,137.09677,0,0 / 0,203339,2018-08-03 20:50:36:159
-2.2766,-18.0056,4.7818,0.8484,-9.4181,-2.598,-3.4633,0.1145,4.1794,0.7911,-0.6307,0.9496,0,46.95,1.09,-74.6,14.5,73.82,-161.92,0,59.564,12.924192,77.68568,0,2881.76449388159,0,137.09677,0,0 / 0,203840,2018-08-03 20:50:36:660
-2.2766,-18.0056,4.7818,0.8484,-9.4181,-2.598,-3.4633,0.1145,4.1794,0.7911,-0.6307,0.9496,0,46.95,1.09,-74.6,14.5,73.82,-161.92,0,58.345,12.924192,77.68568,0,2881.76449388159,0,137.09677,0,0 / 0,204339,2018-08-03 20:50:37:159
-2.2766,-18.0056,4.7818,0.8484,-9.4181,-2.598,-3.4633,0.1145,4.1794,0.7911,-0.6307,0.9496,0,46.95,1.09,-74.6,14.5,73.82,-161.92,0,57.914,12.924192,77.68568,0,2881.76449388159,0,137.09677,0,0 / 0,204839,2018-08-03 20:50:37:659
-2.2766,-18.0056,4.7818,0.8484,-9.4181,-2.598,-3.4633,0.1145,4.1794,0.7911,-0.6307,0.9496,0,46.95,1.09,-74.6,14.5,73.82,-161.92,0,61.834,12.924192,77.68568,0,2881.76449388159,0,137.09677,0,0 / 0,205339,2018-08-03 20:50:38:159
-2.2766,-18.0056,4.7818,0.8484,-9.4181,-2.598,-3.4633,0.1145,4.1794,0.7911,-0.6307,0.9496,0,46.95,1.09,-74.6,14.5,73.82,-161.92,0,62.007,12.924192,77.68568,0,2881.76449388159,0,137.09677,0,0 / 0,205839,2018-08-03 20:50:38:659
-2.2766,-18.0056,4.7818,0.8484,-9.4181,-2.598,-3.4633,0.1145,4.1794,0.7911,-0.6307,0.9496,0,46.95,1.09,-74.6,14.5,73.82,-161.92,0,60.065,12.924192,77.68568,0,2881.76449388159,0,137.09677,0,0 / 0,206339,2018-08-03 20:50:39:159
-2.2766,-18.0056,4.7818,0.8484,-9.4181,-2.598,-3.4633,0.1145,4.1794,0.7911,-0.6307,0.9496,0,46.95,1.09,-74.6,14.5,73.82,-161.92,0,65.645,12.924192,77.68568,0,2881.76449388159,0,137.09677,0,0 / 0,206839,2018-08-03 20:50:39:659
-2.2766,-18.0056,4.7818,0.8484,-9.4181,-2.598,-3.4633,0.1145,4.1794,0.7911,-0.6307,0.9496,0,46.95,1.09,-74.6,14.5,73.82,-161.92,0,62.981,12.924192,77.68568,0,2881.76449388159,0,137.09677,0,0 / 0,207339,2018-08-03 20:50:40:159
-2.2766,-18.0056,4.7818,0.8484,-9.4181,-2.598,-3.4633,0.1145,4.1794,0.7911,-0.6307,0.9496,0,46.95,1.09,-74.6,14.5,73.82,-161.92,0,57.797,12.924192,77.68568,0,2881.76449388159,0,137.09677,0,0 / 0,207839,2018-08-03 20:50:40:659
-2.2766,-18.0056,4.7818,0.8484,-9.4181,-2.598,-3.4633,0.1145,4.1794,0.7911,-0.6307,0.9496,0,46.95,1.09,-74.6,14.5,73.82,-161.92,0,50.328,12.924192,77.68568,0,2881.76449388159,0,137.09677,0,0 / 0,208339,2018-08-03 20:50:41:159
-2.2766,-18.0056,4.7818,0.8484,-9.4181,-2.598,-3.4633,0.1145,4.1794,0.7911,-0.6307,0.9496,0,46.95,1.09,-74.6,14.5,73.82,-161.92,0,53.509,12.924192,77.68568,0,2881.76449388159,0,137.09677,0,0 / 0,208839,2018-08-03 20:50:41:659
-2.2766,-18.0056,4.7818,0.8484,-9.4181,-2.598,-3.4633,0.1145,4.1794,0.7911,-0.6307,0.9496,0,46.95,1.09,-74.6,14.5,73.82,-161.92,0,52.062,12.924192,77.68568,0,2881.76449388159,0,137.09677,0,0 / 0,209339,2018-08-03 20:50:42:159
-2.2766,-18.0056,4.7818,0.8484,-9.4181,-2.598,-3.4633,0.1145,4.1794,0.7911,-0.6307,0.9496,0,46.95,1.09,-74.6,14.5,73.82,-161.92,0,60.621,12.924192,77.68568,0,2881.76449388159,0,137.09677,0,0 / 0,209839,2018-08-03 20:50:42:659
-2.2766,-18.0056,4.7818,0.8484,-9.4181,-2.598,-3.4633,0.1145,4.1794,0.7911,-0.6307,0.9496,0,46.95,1.09,-74.6,14.5,73.82,-161.92,0,58.459,12.924192,77.68568,0,2881.76449388159,0,137.09677,0,0 / 0,210339,2018-08-03 20:50:43:159
-2.2766,-18.0056,4.7818,0.8484,-9.4181,-2.598,-3.4633,0.1145,4.1794,0.7911,-0.6307,0.9496,0,46.95,1.09,-74.6,14.5,73.82,-161.92,0,57.945,12.924192,77.68568,0,2881.76449388159,0,137.09677,0,0 / 0,210838,2018-08-03 20:50:43:658
-2.2766,-18.0056,4.7818,0.8484,-9.4181,-2.598,-3.4633,0.1145,4.1794,0.7911,-0.6307,0.9496,0,46.95,1.09,-74.6,14.5,73.82,-161.92,0,51.374,12.924192,77.68568,0,2881.76449388159,0,137.09677,0,0 / 0,211339,2018-08-03 20:50:44:159
-2.2766,-18.0056,4.7818,0.8484,-9.4181,-2.598,-3.4633,0.1145,4.1794,0.7911,-0.6307,0.9496,0,46.95,1.09,-74.6,14.5,73.82,-161.92,0,57.022,12.924192,77.68568,0,2881.76449388159,0,137.09677,0,0 / 0,211839,2018-08-03 20:50:44:659
-2.2766,-18.0056,4.7818,0.8484,-9.4181,-2.598,-3.4633,0.1145,4.1794,0.7911,-0.6307,0.9496,0,46.95,1.09,-74.6,14.5,73.82,-161.92,0,49.385,12.924192,77.68568,0,2881.76449388159,0,137.09677,0,0 / 0,212338,2018-08-03 20:50:45:158
-2.2766,-18.0056,4.7818,0.8484,-9.4181,-2.598,-3.4633,0.1145,4.1794,0.7911,-0.6307,0.9496,0,46.95,1.09,-74.6,14.5,73.82,-161.92,0,56.726,12.924192,77.68568,0,2881.76449388159,0,137.09677,0,0 / 0,212840,2018-08-03 20:50:45:660
-2.2766,-18.0056,4.7818,0.8484,-9.4181,-2.598,-3.4633,0.1145,4.1794,0.7911,-0.6307,0.9496,0,46.95,1.09,-74.6,14.5,73.82,-161.92,0,48.043,12.924192,77.68568,0,2881.76449388159,0,137.09677,0,0 / 0,213338,2018-08-03 20:50:46:158
-2.2766,-18.0056,4.7818,0.8484,-9.4181,-2.598,-3.4633,0.1145,4.1794,0.7911,-0.6307,0.9496,0,46.95,1.09,-74.6,14.5,73.82,-161.92,0,53.361,12.924192,77.68568,0,2881.76449388159,0,137.09677,0,0 / 0,213839,2018-08-03 20:50:46:659
-2.2766,-18.0056,4.7818,0.8484,-9.4181,-2.598,-3.4633,0.1145,4.1794,0.7911,-0.6307,0.9496,0,46.95,1.09,-74.6,14.5,73.82,-161.92,0,55.084,12.924192,77.68568,0,2881.76449388159,0,137.09677,0,0 / 0,214339,2018-08-03 20:50:47:159
-2.2766,-18.0056,4.7818,0.8484,-9.4181,-2.598,-3.4633,0.1145,4.1794,0.7911,-0.6307,0.9496,0,46.95,1.09,-74.6,14.5,73.82,-161.92,0,57.911,12.924192,77.68568,0,2881.76449388159,0,137.09677,0,0 / 0,214839,2018-08-03 20:50:47:659
-2.2766,-18.0056,4.7818,0.8484,-9.4181,-2.598,-3.4633,0.1145,4.1794,0.7911,-0.6307,0.9496,0,46.95,1.09,-74.6,14.5,73.82,-161.92,0,56.182,12.924192,77.68568,0,2881.76449388159,0,137.09677,0,0 / 0,215339,2018-08-03 20:50:48:159
-2.2766,-18.0056,4.7818,0.8484,-9.4181,-2.598,-3.4633,0.1145,4.1794,0.7911,-0.6307,0.9496,0,46.95,1.09,-74.6,14.5,73.82,-161.92,0,55.982,12.924192,77.68568,0,2881.76449388159,0,137.09677,0,0 / 0,215838,2018-08-03 20:50:48:658
-2.2766,-18.0056,4.7818,0.8484,-9.4181,-2.598,-3.4633,0.1145,4.1794,0.7911,-0.6307,0.9496,0,46.95,1.09,-74.6,14.5,73.82,-161.92,0,55.243,12.924192,77.68568,0,2881.76449388159,0,137.09677,0,0 / 0,216339,2018-08-03 20:50:49:159
-2.2766,-18.0056,4.7818,0.8484,-9.4181,-2.598,-3.4633,0.1145,4.1794,0.7911,-0.6307,0.9496,0,46.95,1.09,-74.6,14.5,73.82,-161.92,0,53.383,12.924192,77.68568,0,2881.76449388159,0,137.09677,0,0 / 0,216838,2018-08-03 20:50:49:658
-2.2766,-18.0056,4.7818,0.8484,-9.4181,-2.598,-3.4633,0.1145,4.1794,0.7911,-0.6307,0.9496,0,46.95,1.09,-74.6,14.5,73.82,-161.92,0,57.427,12.924192,77.68568,0,2881.76449388159,0,137.09677,0,0 / 0,217339,2018-08-03 20:50:50:159
-2.2766,-18.0056,4.7818,0.8484,-9.4181,-2.598,-3.4633,0.1145,4.1794,0.7911,-0.6307,0.9496,0,46.95,1.09,-74.6,14.5,73.82,-161.92,0,58.863,12.924192,77.68568,0,2881.76449388159,0,137.09677,0,0 / 0,217840,2018-08-03 20:50:50:660
-2.2766,-18.0056,4.7818,0.8484,-9.4181,-2.598,-3.4633,0.1145,4.1794,0.7911,-0.6307,0.9496,0,46.95,1.09,-74.6,14.5,73.82,-161.92,0,56.572,12.924192,77.68568,0,2881.76449388159,0,137.09677,0,0 / 0,218339,2018-08-03 20:50:51:159
-2.2766,-18.0056,4.7818,0.8484,-9.4181,-2.598,-3.4633,0.1145,4.1794,0.7911,-0.6307,0.9496,0,46.95,1.09,-74.6,14.5,73.82,-161.92,0,56.835,12.924192,77.68568,0,2881.76449388159,0,137.09677,0,0 / 0,218838,2018-08-03 20:50:51:658
-2.2766,-18.0056,4.7818,0.8484,-9.4181,-2.598,-3.4633,0.1145,4.1794,0.7911,-0.6307,0.9496,0,46.95,1.09,-74.6,14.5,73.82,-161.92,0,53.353,12.924192,77.68568,0,2881.76449388159,0,137.09677,0,0 / 0,219339,2018-08-03 20:50:52:159
-2.2766,-18.0056,4.7818,0.8484,-9.4181,-2.598,-3.4633,0.1145,4.1794,0.7911,-0.6307,0.9496,0,46.95,1.09,-74.6,14.5,73.82,-161.92,0,54.705,12.924192,77.68568,0,2881.76449388159,0,137.09677,0,0 / 0,219839,2018-08-03 20:50:52:659
-2.2766,-18.0056,4.7818,0.8484,-9.4181,-2.598,-3.4633,0.1145,4.1794,0.7911,-0.6307,0.9496,0,46.95,1.09,-74.6,14.5,73.82,-161.92,0,49.97,12.924192,77.68568,0,2881.76449388159,0,137.09677,0,0 / 0,220859,2018-08-03 20:50:53:679
-2.2766,-18.0056,4.7818,0.8484,-9.4181,-2.598,-3.4633,0.1145,4.1794,0.7911,-0.6307,0.9496,0,46.95,1.09,-74.6,14.5,73.82,-161.92,0,52.317,12.924192,77.68568,0,2881.76449388159,0,137.09677,0,0 / 0,221359,2018-08-03 20:50:54:179
-2.2766,-18.0056,4.7818,0.8484,-9.4181,-2.598,-3.4633,0.1145,4.1794,0.7911,-0.6307,0.9496,0,46.95,1.09,-74.6,14.5,73.82,-161.92,0,49.647,12.924192,77.68568,0,2881.76449388159,0,137.09677,0,0 / 0,221858,2018-08-03 20:50:54:678
-2.2766,-18.0056,4.7818,0.8484,-9.4181,-2.598,-3.4633,0.1145,4.1794,0.7911,-0.6307,0.9496,0,46.95,1.09,-74.6,14.5,73.82,-161.92,0,49.397,12.924192,77.68568,0,2881.76449388159,0,137.09677,0,0 / 0,222361,2018-08-03 20:50:55:181
-2.2766,-18.0056,4.7818,0.8484,-9.4181,-2.598,-3.4633,0.1145,4.1794,0.7911,-0.6307,0.9496,0,46.95,1.09,-74.6,14.5,73.82,-161.92,0,48.975,12.924192,77.68568,0,2881.76449388159,0,137.09677,0,0 / 0,222859,2018-08-03 20:50:55:679
-2.2766,-18.0056,4.7818,0.8484,-9.4181,-2.598,-3.4633,0.1145,4.1794,0.7911,-0.6307,0.9496,0,46.95,1.09,-74.6,14.5,73.82,-161.92,0,51.626,12.924192,77.68568,0,2881.76449388159,0,137.09677,0,0 / 0,223358,2018-08-03 20:50:56:178
-2.2766,-18.0056,4.7818,0.8484,-9.4181,-2.598,-3.4633,0.1145,4.1794,0.7911,-0.6307,0.9496,0,46.95,1.09,-74.6,14.5,73.82,-161.92,0,56.387,12.924192,77.68568,0,2881.76449388159,0,137.09677,0,0 / 0,223858,2018-08-03 20:50:56:678
-2.2766,-18.0056,4.7818,0.8484,-9.4181,-2.598,-3.4633,0.1145,4.1794,0.7911,-0.6307,0.9496,0,46.95,1.09,-74.6,14.5,73.82,-161.92,0,54.585,12.924192,77.68568,0,2881.76449388159,0,137.09677,0,0 / 0,224359,2018-08-03 20:50:57:179
-2.2766,-18.0056,4.7818,0.8484,-9.4181,-2.598,-3.4633,0.1145,4.1794,0.7911,-0.6307,0.9496,0,46.95,1.09,-74.6,14.5,73.82,-161.92,0,51.928,12.924192,77.68568,0,2881.76449388159,0,137.09677,0,0 / 0,224858,2018-08-03 20:50:57:678
-2.2766,-18.0056,4.7818,0.8484,-9.4181,-2.598,-3.4633,0.1145,4.1794,0.7911,-0.6307,0.9496,0,46.95,1.09,-74.6,14.5,73.82,-161.92,0,56.584,12.924192,77.68568,0,2881.76449388159,0,137.09677,0,0 / 0,225358,2018-08-03 20:50:58:178
-2.2766,-18.0056,4.7818,0.8484,-9.4181,-2.598,-3.4633,0.1145,4.1794,0.7911,-0.6307,0.9496,0,46.95,1.09,-74.6,14.5,73.82,-161.92,0,57.393,12.924192,77.68568,0,2881.76449388159,0,137.09677,0,0 / 0,225858,2018-08-03 20:50:58:678
-2.2766,-18.0056,4.7818,0.8484,-9.4181,-2.598,-3.4633,0.1145,4.1794,0.7911,-0.6307,0.9496,0,46.95,1.09,-74.6,14.5,73.82,-161.92,0,56.778,12.924192,77.68568,0,2881.76449388159,0,137.09677,0,0 / 0,226359,2018-08-03 20:50:59:179
-2.2766,-18.0056,4.7818,0.8484,-9.4181,-2.598,-3.4633,0.1145,4.1794,0.7911,-0.6307,0.9496,0,46.95,1.09,-74.6,14.5,73.82,-161.92,0,57.099,12.924192,77.68568,0,2881.76449388159,0,137.09677,0,0 / 0,226859,2018-08-03 20:50:59:679
-2.2766,-18.0056,4.7818,0.8484,-9.4181,-2.598,-3.4633,0.1145,4.1794,0.7911,-0.6307,0.9496,0,46.95,1.09,-74.6,14.5,73.82,-161.92,0,52.349,12.924192,77.68568,0,2881.76449388159,0,137.09677,0,0 / 0,227358,2018-08-03 20:51:00:178
-2.2766,-18.0056,4.7818,0.8484,-9.4181,-2.598,-3.4633,0.1145,4.1794,0.7911,-0.6307,0.9496,0,46.95,1.09,-74.6,14.5,73.82,-161.92,0,55.001,12.924192,77.68568,0,2881.76449388159,0,137.09677,0,0 / 0,227859,2018-08-03 20:51:00:679
-2.2766,-18.0056,4.7818,0.8484,-9.4181,-2.598,-3.4633,0.1145,4.1794,0.7911,-0.6307,0.9496,0,46.95,1.09,-74.6,14.5,73.82,-161.92,0,58.294,12.924192,77.68568,0,2881.76449388159,0,137.09677,0,0 / 0,228358,2018-08-03 20:51:01:178
-2.2766,-18.0056,4.7818,0.8484,-9.4181,-2.598,-3.4633,0.1145,4.1794,0.7911,-0.6307,0.9496,0,46.95,1.09,-74.6,14.5,73.82,-161.92,0,53.234,12.924192,77.68568,0,2881.76449388159,0,137.09677,0,0 / 0,228858,2018-08-03 20:51:01:678
-2.2766,-18.0056,4.7818,0.8484,-9.4181,-2.598,-3.4633,0.1145,4.1794,0.7911,-0.6307,0.9496,0,46.95,1.09,-74.6,14.5,73.82,-161.92,0,55.243,12.924192,77.68568,0,2881.76449388159,0,137.09677,0,0 / 0,229359,2018-08-03 20:51:02:179
-2.2766,-18.0056,4.7818,0.8484,-9.4181,-2.598,-3.4633,0.1145,4.1794,0.7911,-0.6307,0.9496,0,46.95,1.09,-74.6,14.5,73.82,-161.92,0,55.262,12.924192,77.68568,0,2881.76449388159,0,137.09677,0,0 / 0,229858,2018-08-03 20:51:02:678
-2.2766,-18.0056,4.7818,0.8484,-9.4181,-2.598,-3.4633,0.1145,4.1794,0.7911,-0.6307,0.9496,0,46.95,1.09,-74.6,14.5,73.82,-161.92,0,60.442,12.924192,77.68568,0,2881.76449388159,0,137.09677,0,0 / 0,230598,2018-08-03 20:51:03:418
-2.2766,-18.0056,4.7818,0.8484,-9.4181,-2.598,-3.4633,0.1145,4.1794,0.7911,-0.6307,0.9496,0,46.95,1.09,-74.6,14.5,73.82,-161.92,0,61.733,12.924192,77.68568,0,2881.76449388159,0,137.09677,0,0 / 0,231097,2018-08-03 20:51:03:917
-2.2766,-18.0056,4.7818,0.8484,-9.4181,-2.598,-3.4633,0.1145,4.1794,0.7911,-0.6307,0.9496,0,46.95,1.09,-74.6,14.5,73.82,-161.92,0,57.668,12.924192,77.68568,0,2881.76449388159,0,137.09677,0,0 / 0,231598,2018-08-03 20:51:04:418
-2.2766,-18.0056,4.7818,0.8484,-9.4181,-2.598,-3.4633,0.1145,4.1794,0.7911,-0.6307,0.9496,0,46.95,1.09,-74.6,14.5,73.82,-161.92,0,58.046,12.924192,77.68568,0,2881.76449388159,0,137.09677,0,0 / 0,232098,2018-08-03 20:51:04:918
-2.2766,-18.0056,4.7818,0.8484,-9.4181,-2.598,-3.4633,0.1145,4.1794,0.7911,-0.6307,0.9496,0,46.95,1.09,-74.6,14.5,73.82,-161.92,0,60.745,12.924192,77.68568,0,2881.76449388159,0,137.09677,0,0 / 0,232598,2018-08-03 20:51:05:418
-2.2766,-18.0056,4.7818,0.8484,-9.4181,-2.598,-3.4633,0.1145,4.1794,0.7911,-0.6307,0.9496,0,46.95,1.09,-74.6,14.5,73.82,-161.92,0,57.626,12.924192,77.68568,0,2881.76449388159,0,137.09677,0,0 / 0,233097,2018-08-03 20:51:05:917
-2.2766,-18.0056,4.7818,0.8484,-9.4181,-2.598,-3.4633,0.1145,4.1794,0.7911,-0.6307,0.9496,0,46.95,1.09,-74.6,14.5,73.82,-161.92,0,53.762,12.924192,77.68568,0,2881.76449388159,0,137.09677,0,0 / 0,233597,2018-08-03 20:51:06:417
-2.2766,-18.0056,4.7818,0.8484,-9.4181,-2.598,-3.4633,0.1145,4.1794,0.7911,-0.6307,0.9496,0,46.95,1.09,-74.6,14.5,73.82,-161.92,0,57.407,12.924192,77.68568,0,2881.76449388159,0,137.09677,0,0 / 0,234097,2018-08-03 20:51:06:917
-2.2766,-18.0056,4.7818,0.8484,-9.4181,-2.598,-3.4633,0.1145,4.1794,0.7911,-0.6307,0.9496,0,46.95,1.09,-74.6,14.5,73.82,-161.92,0,54.308,12.924192,77.68568,0,2881.76449388159,0,137.09677,0,0 / 0,234597,2018-08-03 20:51:07:417
-2.2766,-18.0056,4.7818,0.8484,-9.4181,-2.598,-3.4633,0.1145,4.1794,0.7911,-0.6307,0.9496,0,46.95,1.09,-74.6,14.5,73.82,-161.92,0,57.025,12.924192,77.68568,0,2881.76449388159,0,137.09677,0,0 / 0,235098,2018-08-03 20:51:07:918
-2.2766,-18.0056,4.7818,0.8484,-9.4181,-2.598,-3.4633,0.1145,4.1794,0.7911,-0.6307,0.9496,0,46.95,1.09,-74.6,14.5,73.82,-161.92,0,51.538,12.924192,77.68568,0,2881.76449388159,0,137.09677,0,0 / 0,235597,2018-08-03 20:51:08:417
-2.2766,-18.0056,4.7818,0.8484,-9.4181,-2.598,-3.4633,0.1145,4.1794,0.7911,-0.6307,0.9496,0,46.95,1.09,-74.6,14.5,73.82,-161.92,0,59.129,12.924192,77.68568,0,2881.76449388159,0,137.09677,0,0 / 0,236097,2018-08-03 20:51:08:917
-2.2766,-18.0056,4.7818,0.8484,-9.4181,-2.598,-3.4633,0.1145,4.1794,0.7911,-0.6307,0.9496,0,46.95,1.09,-74.6,14.5,73.82,-161.92,0,52.137,12.924192,77.68568,0,2881.76449388159,0,137.09677,0,0 / 0,236597,2018-08-03 20:51:09:417
-2.2766,-18.0056,4.7818,0.8484,-9.4181,-2.598,-3.4633,0.1145,4.1794,0.7911,-0.6307,0.9496,0,46.95,1.09,-74.6,14.5,73.82,-161.92,0,57.095,12.924192,77.68568,0,2881.76449388159,0,137.09677,0,0 / 0,237097,2018-08-03 20:51:09:917
-2.2766,-18.0056,4.7818,0.8484,-9.4181,-2.598,-3.4633,0.1145,4.1794,0.7911,-0.6307,0.9496,0,46.95,1.09,-74.6,14.5,73.82,-161.92,0,57.633,12.924192,77.68568,0,2881.76449388159,0,137.09677,0,0 / 0,237598,2018-08-03 20:51:10:418
-2.2766,-18.0056,4.7818,0.8484,-9.4181,-2.598,-3.4633,0.1145,4.1794,0.7911,-0.6307,0.9496,0,46.95,1.09,-74.6,14.5,73.82,-161.92,0,54.664,12.924192,77.68568,0,2881.76449388159,0,137.09677,0,0 / 0,238097,2018-08-03 20:51:10:917
-2.2766,-18.0056,4.7818,0.8484,-9.4181,-2.598,-3.4633,0.1145,4.1794,0.7911,-0.6307,0.9496,0,46.95,1.09,-74.6,14.5,73.82,-161.92,0,56.468,12.924192,77.68568,0,2881.76449388159,0,137.09677,0,0 / 0,238598,2018-08-03 20:51:11:418
-2.2766,-18.0056,4.7818,0.8484,-9.4181,-2.598,-3.4633,0.1145,4.1794,0.7911,-0.6307,0.9496,0,46.95,1.09,-74.6,14.5,73.82,-161.92,0,61.058,12.924192,77.68568,0,2881.76449388159,0,137.09677,0,0 / 0,239098,2018-08-03 20:51:11:918
-2.2766,-18.0056,4.7818,0.8484,-9.4181,-2.598,-3.4633,0.1145,4.1794,0.7911,-0.6307,0.9496,0,46.95,1.09,-74.6,14.5,73.82,-161.92,0,48.34,12.924192,77.68568,0,2881.76449388159,0,137.09677,0,0 / 0,239597,2018-08-03 20:51:12:417
-2.2766,-18.0056,4.7818,0.8484,-9.4181,-2.598,-3.4633,0.1145,4.1794,0.7911,-0.6307,0.9496,0,46.95,1.09,-74.6,14.5,73.82,-161.92,0,54.63,12.924192,77.68568,0,2881.76449388159,0,137.09677,0,0 / 0,240098,2018-08-03 20:51:12:918
-2.2766,-18.0056,4.7818,0.8484,-9.4181,-2.598,-3.4633,0.1145,4.1794,0.7911,-0.6307,0.9496,0,46.95,1.09,-74.6,14.5,73.82,-161.92,0,45.887,12.924192,77.68568,0,2881.76449388159,0,137.09677,0,0 / 0,240598,2018-08-03 20:51:13:418
-2.2766,-18.0056,4.7818,0.8484,-9.4181,-2.598,-3.4633,0.1145,4.1794,0.7911,-0.6307,0.9496,0,46.95,1.09,-74.6,14.5,73.82,-161.92,0,54.865,12.924192,77.68568,0,2881.76449388159,0,137.09677,0,0 / 0,241098,2018-08-03 20:51:13:918
-2.2766,-18.0056,4.7818,0.8484,-9.4181,-2.598,-3.4633,0.1145,4.1794,0.7911,-0.6307,0.9496,0,46.95,1.09,-74.6,14.5,73.82,-161.92,0,56.869,12.924192,77.68568,0,2881.76449388159,0,137.09677,0,0 / 0,241597,2018-08-03 20:51:14:417
-2.2766,-18.0056,4.7818,0.8484,-9.4181,-2.598,-3.4633,0.1145,4.1794,0.7911,-0.6307,0.9496,0,46.95,1.09,-74.6,14.5,73.82,-161.92,0,58.919,12.924192,77.68568,0,2881.76449388159,0,137.09677,0,0 / 0,242097,2018-08-03 20:51:14:917
-2.2766,-18.0056,4.7818,0.8484,-9.4181,-2.598,-3.4633,0.1145,4.1794,0.7911,-0.6307,0.9496,0,46.95,1.09,-74.6,14.5,73.82,-161.92,0,60.965,12.924192,77.68568,0,2881.76449388159,0,137.09677,0,0 / 0,242598,2018-08-03 20:51:15:418
-2.2766,-18.0056,4.7818,0.8484,-9.4181,-2.598,-3.4633,0.1145,4.1794,0.7911,-0.6307,0.9496,0,46.95,1.09,-74.6,14.5,73.82,-161.92,0,53.723,12.924192,77.68568,0,2881.76449388159,0,137.09677,0,0 / 0,243098,2018-08-03 20:51:15:918
-2.2766,-18.0056,4.7818,0.8484,-9.4181,-2.598,-3.4633,0.1145,4.1794,0.7911,-0.6307,0.9496,0,46.95,1.09,-74.6,14.5,73.82,-161.92,0,61.139,12.924192,77.68568,0,2881.76449388159,0,137.09677,0,0 / 0,243597,2018-08-03 20:51:16:417
-2.2766,-18.0056,4.7818,0.8484,-9.4181,-2.598,-3.4633,0.1145,4.1794,0.7911,-0.6307,0.9496,0,46.95,1.09,-74.6,14.5,73.82,-161.92,0,57.217,12.924192,77.68568,0,2881.76449388159,0,137.09677,0,0 / 0,244097,2018-08-03 20:51:16:917
-2.2766,-18.0056,4.7818,0.8484,-9.4181,-2.598,-3.4633,0.1145,4.1794,0.7911,-0.6307,0.9496,0,46.95,1.09,-74.6,14.5,73.82,-161.92,0,62.187,12.924192,77.68568,0,2881.76449388159,0,137.09677,0,0 / 0,244597,2018-08-03 20:51:17:417
-2.2766,-18.0056,4.7818,0.8484,-9.4181,-2.598,-3.4633,0.1145,4.1794,0.7911,-0.6307,0.9496,0,46.95,1.09,-74.6,14.5,73.82,-161.92,0,57.225,12.924192,77.68568,0,2881.76449388159,0,137.09677,0,0 / 0,245098,2018-08-03 20:51:17:918
-2.2766,-18.0056,4.7818,0.8484,-9.4181,-2.598,-3.4633,0.1145,4.1794,0.7911,-0.6307,0.9496,0,46.95,1.09,-74.6,14.5,73.82,-161.92,0,55.98,12.924192,77.68568,0,2881.76449388159,0,137.09677,0,0 / 0,245597,2018-08-03 20:51:18:417
-2.2766,-18.0056,4.7818,0.8484,-9.4181,-2.598,-3.4633,0.1145,4.1794,0.7911,-0.6307,0.9496,0,46.95,1.09,-74.6,14.5,73.82,-161.92,0,61.818,12.924192,77.68568,0,2881.76449388159,0,137.09677,0,0 / 0,246097,2018-08-03 20:51:18:917
-2.2766,-18.0056,4.7818,0.8484,-9.4181,-2.598,-3.4633,0.1145,4.1794,0.7911,-0.6307,0.9496,0,46.95,1.09,-74.6,14.5,73.82,-161.92,0,54.434,12.924192,77.68568,0,2881.76449388159,0,137.09677,0,0 / 0,246597,2018-08-03 20:51:19:417
-2.2766,-18.0056,4.7818,0.8484,-9.4181,-2.598,-3.4633,0.1145,4.1794,0.7911,-0.6307,0.9496,0,46.95,1.09,-74.6,14.5,73.82,-161.92,0,60.877,12.924192,77.68568,0,2881.76449388159,0,137.09677,0,0 / 0,247098,2018-08-03 20:51:19:918
-2.2766,-18.0056,4.7818,0.8484,-9.4181,-2.598,-3.4633,0.1145,4.1794,0.7911,-0.6307,0.9496,0,46.95,1.09,-74.6,14.5,73.82,-161.92,0,59.019,12.924192,77.68568,0,2881.76449388159,0,137.09677,0,0 / 0,247597,2018-08-03 20:51:20:417
-2.2766,-18.0056,4.7818,0.8484,-9.4181,-2.598,-3.4633,0.1145,4.1794,0.7911,-0.6307,0.9496,0,46.95,1.09,-74.6,14.5,73.82,-161.92,0,55.672,12.924192,77.68568,0,2881.76449388159,0,137.09677,0,0 / 0,248098,2018-08-03 20:51:20:918
-2.2766,-18.0056,4.7818,0.8484,-9.4181,-2.598,-3.4633,0.1145,4.1794,0.7911,-0.6307,0.9496,0,46.95,1.09,-74.6,14.5,73.82,-161.92,0,63.063,12.924192,77.68568,0,2881.76449388159,0,137.09677,0,0 / 0,248597,2018-08-03 20:51:21:417
-2.2766,-18.0056,4.7818,0.8484,-9.4181,-2.598,-3.4633,0.1145,4.1794,0.7911,-0.6307,0.9496,0,46.95,1.09,-74.6,14.5,73.82,-161.92,0,61.668,12.924192,77.68568,0,2881.76449388159,0,137.09677,0,0 / 0,249097,2018-08-03 20:51:21:917
-2.2766,-18.0056,4.7818,0.8484,-9.4181,-2.598,-3.4633,0.1145,4.1794,0.7911,-0.6307,0.9496,0,46.95,1.09,-74.6,14.5,73.82,-161.92,0,64.821,12.924192,77.68568,0,2881.76449388159,0,137.09677,0,0 / 0,249598,2018-08-03 20:51:22:418
-2.2766,-18.0056,4.7818,0.8484,-9.4181,-2.598,-3.4633,0.1145,4.1794,0.7911,-0.6307,0.9496,0,46.95,1.09,-74.6,14.5,73.82,-161.92,0,59.898,12.924192,77.68568,0,2881.76449388159,0,137.09677,0,0 / 0,250097,2018-08-03 20:51:22:917
-2.2766,-18.0056,4.7818,0.8484,-9.4181,-2.598,-3.4633,0.1145,4.1794,0.7911,-0.6307,0.9496,0,46.95,1.09,-74.6,14.5,73.82,-161.92,0,52.972,12.924192,77.68568,0,2881.76449388159,0,137.09677,0,0 / 0,250598,2018-08-03 20:51:23:418
-2.2766,-18.0056,4.7818,0.8484,-9.4181,-2.598,-3.4633,0.1145,4.1794,0.7911,-0.6307,0.9496,0,46.95,1.09,-74.6,14.5,73.82,-161.92,0,60.507,12.924192,77.68568,0,2881.76449388159,0,137.09677,0,0 / 0,251098,2018-08-03 20:51:23:918
-2.2766,-18.0056,4.7818,0.8484,-9.4181,-2.598,-3.4633,0.1145,4.1794,0.7911,-0.6307,0.9496,0,46.95,1.09,-74.6,14.5,73.82,-161.92,0,56.038,12.924192,77.68568,0,2881.76449388159,0,137.09677,0,0 / 0,251598,2018-08-03 20:51:24:418
-2.2766,-18.0056,4.7818,0.8484,-9.4181,-2.598,-3.4633,0.1145,4.1794,0.7911,-0.6307,0.9496,0,46.95,1.09,-74.6,14.5,73.82,-161.92,0,57.876,12.924192,77.68568,0,2881.76449388159,0,137.09677,0,0 / 0,252098,2018-08-03 20:51:24:918
-2.2766,-18.0056,4.7818,0.8484,-9.4181,-2.598,-3.4633,0.1145,4.1794,0.7911,-0.6307,0.9496,0,46.95,1.09,-74.6,14.5,73.82,-161.92,0,66.757,12.924192,77.68568,0,2881.76449388159,0,137.09677,0,0 / 0,252597,2018-08-03 20:51:25:417
-2.2766,-18.0056,4.7818,0.8484,-9.4181,-2.598,-3.4633,0.1145,4.1794,0.7911,-0.6307,0.9496,0,46.95,1.09,-74.6,14.5,73.82,-161.92,0,57.32,12.924192,77.68568,0,2881.76449388159,0,137.09677,0,0 / 0,253097,2018-08-03 20:51:25:917
-2.2766,-18.0056,4.7818,0.8484,-9.4181,-2.598,-3.4633,0.1145,4.1794,0.7911,-0.6307,0.9496,0,46.95,1.09,-74.6,14.5,73.82,-161.92,0,60.271,12.924192,77.68568,0,2881.76449388159,0,137.09677,0,0 / 0,253598,2018-08-03 20:51:26:418
-2.2766,-18.0056,4.7818,0.8484,-9.4181,-2.598,-3.4633,0.1145,4.1794,0.7911,-0.6307,0.9496,0,46.95,1.09,-74.6,14.5,73.82,-161.92,0,59.72,12.924192,77.68568,0,2881.76449388159,0,137.09677,0,0 / 0,254097,2018-08-03 20:51:26:917
-2.2766,-18.0056,4.7818,0.8484,-9.4181,-2.598,-3.4633,0.1145,4.1794,0.7911,-0.6307,0.9496,0,46.95,1.09,-74.6,14.5,73.82,-161.92,0,61.525,12.924192,77.68568,0,2881.76449388159,0,137.09677,0,0 / 0,254597,2018-08-03 20:51:27:417
-2.2766,-18.0056,4.7818,0.8484,-9.4181,-2.598,-3.4633,0.1145,4.1794,0.7911,-0.6307,0.9496,0,46.95,1.09,-74.6,14.5,73.82,-161.92,0,59.679,12.924192,77.68568,0,2881.76449388159,0,137.09677,0,0 / 0,255097,2018-08-03 20:51:27:917
-2.2766,-18.0056,4.7818,0.8484,-9.4181,-2.598,-3.4633,0.1145,4.1794,0.7911,-0.6307,0.9496,0,46.95,1.09,-74.6,14.5,73.82,-161.92,0,58.141,12.924192,77.68568,0,2881.76449388159,0,137.09677,0,0 / 0,255598,2018-08-03 20:51:28:418
-2.2766,-18.0056,4.7818,0.8484,-9.4181,-2.598,-3.4633,0.1145,4.1794,0.7911,-0.6307,0.9496,0,46.95,1.09,-74.6,14.5,73.82,-161.92,0,61.067,12.924192,77.68568,0,2881.76449388159,0,137.09677,0,0 / 0,256098,2018-08-03 20:51:28:918
-2.2766,-18.0056,4.7818,0.8484,-9.4181,-2.598,-3.4633,0.1145,4.1794,0.7911,-0.6307,0.9496,0,46.95,1.09,-74.6,14.5,73.82,-161.92,0,59.396,12.924192,77.68568,0,2881.76449388159,0,137.09677,0,0 / 0,256597,2018-08-03 20:51:29:417
-2.2766,-18.0056,4.7818,0.8484,-9.4181,-2.598,-3.4633,0.1145,4.1794,0.7911,-0.6307,0.9496,0,46.95,1.09,-74.6,14.5,73.82,-161.92,0,62.035,12.924192,77.68568,0,2881.76449388159,0,137.09677,0,0 / 0,257098,2018-08-03 20:51:29:918
-2.2766,-18.0056,4.7818,0.8484,-9.4181,-2.598,-3.4633,0.1145,4.1794,0.7911,-0.6307,0.9496,0,46.95,1.09,-74.6,14.5,73.82,-161.92,0,61.663,12.924192,77.68568,0,2881.76449388159,0,137.09677,0,0 / 0,257598,2018-08-03 20:51:30:418
-2.2766,-18.0056,4.7818,0.8484,-9.4181,-2.598,-3.4633,0.1145,4.1794,0.7911,-0.6307,0.9496,0,46.95,1.09,-74.6,14.5,73.82,-161.92,0,59.09,12.924192,77.68568,0,2881.76449388159,0,137.09677,0,0 / 0,258097,2018-08-03 20:51:30:917
-2.2766,-18.0056,4.7818,0.8484,-9.4181,-2.598,-3.4633,0.1145,4.1794,0.7911,-0.6307,0.9496,0,46.95,1.09,-74.6,14.5,73.82,-161.92,0,63.12,12.924192,77.68568,0,2881.76449388159,0,137.09677,0,0 / 0,258597,2018-08-03 20:51:31:417
-2.2766,-18.0056,4.7818,0.8484,-9.4181,-2.598,-3.4633,0.1145,4.1794,0.7911,-0.6307,0.9496,0,46.95,1.09,-74.6,14.5,73.82,-161.92,0,61.078,12.924192,77.68568,0,2881.76449388159,0,137.09677,0,0 / 0,259097,2018-08-03 20:51:31:917
-2.2766,-18.0056,4.7818,0.8484,-9.4181,-2.598,-3.4633,0.1145,4.1794,0.7911,-0.6307,0.9496,0,46.95,1.09,-74.6,14.5,73.82,-161.92,0,55.697,12.924192,77.68568,0,2881.76449388159,0,137.09677,0,0 / 0,259597,2018-08-03 20:51:32:417
-2.2766,-18.0056,4.7818,0.8484,-9.4181,-2.598,-3.4633,0.1145,4.1794,0.7911,-0.6307,0.9496,0,46.95,1.09,-74.6,14.5,73.82,-161.92,0,58.594,12.924192,77.68568,0,2881.76449388159,0,137.09677,0,0 / 0,260097,2018-08-03 20:51:32:917
-2.2766,-18.0056,4.7818,0.8484,-9.4181,-2.598,-3.4633,0.1145,4.1794,0.7911,-0.6307,0.9496,0,46.95,1.09,-74.6,14.5,73.82,-161.92,0,58.594,12.924192,77.68568,0,2881.76449388159,0,137.09677,0,0 / 0,260098,2018-08-03 20:51:32:918
-2.2766,-18.0056,4.7818,0.8484,-9.4181,-2.598,-3.4633,0.1145,4.1794,0.7911,-0.6307,0.9496,0,46.95,1.09,-74.6,14.5,73.82,-161.92,0,61.074,12.924192,77.68568,0,2881.76449388159,0,137.09677,0,0 / 0,260535,2018-08-03 20:51:33:355
-2.2766,-18.0056,4.7818,0.8484,-9.4181,-2.598,-3.4633,0.1145,4.1794,0.7911,-0.6307,0.9496,0,46.95,1.09,-74.6,14.5,73.82,-161.92,0,60.174,12.924192,77.68568,0,2881.76449388159,0,137.09677,0,0 / 0,261035,2018-08-03 20:51:33:855
-2.2766,-18.0056,4.7818,0.8484,-9.4181,-2.598,-3.4633,0.1145,4.1794,0.7911,-0.6307,0.9496,0,46.95,1.09,-74.6,14.5,73.82,-161.92,0,59.086,12.924192,77.68568,0,2881.76449388159,0,137.09677,0,0 / 0,261536,2018-08-03 20:51:34:356
-2.2766,-18.0056,4.7818,0.8484,-9.4181,-2.598,-3.4633,0.1145,4.1794,0.7911,-0.6307,0.9496,0,46.95,1.09,-74.6,14.5,73.82,-161.92,0,59.199,12.924192,77.68568,0,2881.76449388159,0,137.09677,0,0 / 0,262035,2018-08-03 20:51:34:855
