sep=,,,,,,,,,,,,,,,,,,,,,,,,,,,,,,
ACCELEROMETER X (m/s²),ACCELEROMETER Y (m/s²),ACCELEROMETER Z (m/s²),GRAVITY X (m/s²),GRAVITY Y (m/s²),GRAVITY Z (m/s²),LINEAR ACCELERATION X (m/s²),LINEAR ACCELERATION Y (m/s²),LINEAR ACCELERATION Z (m/s²),GYROSCOPE X (rad/s),GYROSCOPE Y (rad/s),GYROSCOPE Z (rad/s),LIGHT (lux),MAGNETIC FIELD X (μT),MAGNETIC FIELD Y (μT),MAGNETIC FIELD Z (μT),ORIENTATION Z (azimuth °),ORIENTATION X (pitch °),ORIENTATION Y (roll °),PROXIMITY (i),SOUND LEVEL (dB),LOCATION Latitude : ,LOCATION Longitude : ,LOCATION Altitude ( m),LOCATION Altitude-google ( m),LOCATION Speed ( Kmh),LOCATION Accuracy ( m),LOCATION ORIENTATION (°),Satellites in range,Time since start in ms ,YYYY-MO-DD HH-MI-SS_SSS
-0.9621,0.213,12.2757,-0.2933,0.4323,9.7927,-1.3972,0.3971,2.2016,0.0871,0.6115,0.1459,120,33.94,28.37,-23.1,310.28,-1.81,0.29,2,44.57,12.925905,77.6864,0,2907.03340894625,0,80.57097,0,0 / 0,32,2018-08-07 18:41:42:677
-3.6963,-1.4665,14.0103,-1.7176,-0.6471,9.6334,-0.4436,1.4568,-2.2377,-1.45,-0.458,0.1534,120,42.01,23.61,-12.6,300.07,3.78,10.11,2,50.516,12.925905,77.6864,0,2907.03340894625,0,80.57097,0,0 / 0,532,2018-08-07 18:41:43:177
-1.2722,0.1149,8.5156,-1.9427,0.8748,9.5724,1.4521,0.1634,-3.8943,0.1692,-0.7339,-0.554,120,43,14.97,-13.65,293.66,-4.96,13.07,2,48.751,12.925905,77.6864,0,2907.03340894625,0,80.57097,0,0 / 0,1032,2018-08-07 18:41:43:677
-0.1445,-0.8177,8.2307,-0.1893,0.0395,9.8047,-1.5043,-0.9828,-2.3829,0.0136,-0.4208,-0.1151,120,33.11,23.23,-19.64,305.57,-0.3,1.9,2,60.441,12.925905,77.6864,0,2907.03340894625,0,80.57097,0,0 / 0,1532,2018-08-07 18:41:44:177
-3.9549,2.9604,5.1362,-0.237,-0.0434,9.8037,-1.9023,2.4003,-1.2,0.3801,-1.126,-0.0352,120,17.56,35.9,-20.5,334.93,1.34,3.74,2,58.204,12.925905,77.6864,0,2907.03340894625,0,80.57097,0,0 / 0,2032,2018-08-07 18:41:44:677
-3.0726,-0.9805,9.6827,-0.9837,1.4032,9.6558,0.4525,-2.5354,-1.5703,0.3769,0.9577,0.7446,120,37.4,11.84,-18.69,293.43,-8.23,5.82,2,68.975,12.925905,77.6864,0,2907.03340894625,0,80.57097,0,0 / 0,2532,2018-08-07 18:41:45:177
0.3642,0.0981,10.6428,-1.1338,0.8376,9.7048,0.3376,-1.2624,4.2271,-0.0854,-0.5901,-0.5913,120,36.99,10.39,-20.49,289.97,-5.42,7.96,2,64.326,12.925905,77.6864,0,2907.03340894625,0,80.57097,0,0 / 0,3032,2018-08-07 18:41:45:677
-2.431,-2.5954,15.3175,-1.1295,-0.2531,9.7381,-1.3747,-0.1605,1.5669,-0.2932,-0.4985,1.0823,120,40.5,4.47,-24.46,274.91,1.48,6.62,2,68.603,12.925905,77.6864,0,2907.03340894625,0,80.57097,0,0 / 0,3533,2018-08-07 18:41:46:178
1.3698,-0.4813,10.8308,-0.7213,1.3286,9.6894,3.1486,-1.4025,1.0287,-0.1429,-0.8074,-0.6669,120,41.21,-14.96,-22.75,254.17,-8.39,6.19,2,63.766,12.925905,77.6864,0,2907.03340894625,0,80.57097,0,0 / 0,4032,2018-08-07 18:41:46:677
-2.0096,0.3016,9.7713,-0.1447,0.052,9.8054,-1.8145,0.2581,-0.2776,-0.1653,0.2461,0.1235,225,43.71,0.03,-27.21,270.24,-0.4,-0.17,2,65.208,12.925905,77.6864,0,2907.03340894625,0,80.57097,0,0 / 0,4533,2018-08-07 18:41:47:178
-0.3121,0.8092,7.6225,-1.594,0.0021,9.6762,2.0402,0.141,-2.006,-0.3954,0.751,0.8117,225,39.41,-24.36,-14.93,236.98,-0.61,7.83,2,67.232,12.925905,77.6864,0,2907.03340894625,0,80.57097,0,0 / 0,5032,2018-08-07 18:41:47:677
-0.3863,3.0585,8.7334,-0.8023,1.0519,9.717,-1.1587,1.0419,-0.3269,1.2387,0.996,2.7164,120,20.48,-38.55,-13.61,206.79,-2.87,2.81,2,66.425,12.925905,77.6864,0,2907.03340894625,0,80.57097,0,0 / 0,5532,2018-08-07 18:41:48:177
-1.5703,-0.6992,6.8528,0.0058,2.2094,9.5545,-2.485,-3.9355,-1.0703,0.1489,0.1651,1.4583,120,-36.97,-21.5,-8.24,116.77,-13.03,0.12,2,68.362,12.925905,77.6864,0,2907.03340894625,0,80.57097,0,0 / 0,6033,2018-08-07 18:41:48:678
-2.4346,1.1947,9.7187,0.2379,3.4876,9.1624,-1.3399,-2.1787,1.1503,0.8083,0.0906,0.556,120,-41.89,-7.41,-9.73,94.65,-17.44,-1.28,2,58.475,12.925905,77.6864,0,2907.03340894625,0,80.57097,0,0 / 0,6532,2018-08-07 18:41:49:177
1.0574,4.0677,8.9824,-0.3667,3.9674,8.9608,0.689,-3.662,0.7848,0.3204,-0.1086,-2.5801,120,-37.1,-20.36,-5.56,113.88,-23.86,2.34,2,66.147,12.925905,77.6864,0,2907.03340894625,0,80.57097,0,0 / 0,7032,2018-08-07 18:41:49:677
-3.0176,-0.1748,15.4504,-1.3434,1.4095,9.6114,-3.1109,-1.0481,3.7566,-0.7246,0.4155,-1.8014,120,-3.43,-41.76,-7.92,174.51,-10.53,6.11,2,63.772,12.925905,77.6864,0,2907.03340894625,0,80.57097,0,0 / 0,7532,2018-08-07 18:41:50:177
-3.4425,-1.6197,10.4549,-0.5162,0.379,9.7857,-2.9729,-0.3144,0.0597,-0.3208,-0.3441,-0.0725,120,27.06,-30.88,-12.33,220.84,-2.21,3.02,2,65.894,12.925905,77.6864,0,2907.03340894625,0,80.57097,0,0 / 0,8034,2018-08-07 18:41:50:679
-0.1433,0.055,11.2689,-0.4145,-0.5449,9.7827,0.1346,1.0605,-1.6341,-0.1792,0.1183,-0.5082,120,32.1,-20.41,-15.41,236.5,2.83,2.23,2,39.417,12.925905,77.6864,0,2907.03340894625,0,80.57097,0,0 / 0,8532,2018-08-07 18:41:51:177
-2.182,0.6069,7.0383,-0.3922,1.0971,9.7372,-1.0792,-0.834,-1.7003,0.8009,-0.9161,-0.3399,120,33.77,-18.38,-13.32,244.05,-6.42,2.31,2,66.313,12.925905,77.6864,0,2907.03340894625,0,80.57097,0,0 / 0,9032,2018-08-07 18:41:51:677
0.3618,0.3651,8.0966,-0.3173,0.3435,9.7955,1.1432,-0.2646,-1.9656,0.0094,-0.1001,-0.2493,120,29.08,-21,-14.52,234.3,-2.02,2.17,2,65.785,12.925905,77.6864,0,2907.03340894625,0,80.57097,0,0 / 0,9532,2018-08-07 18:41:52:177
-1.1704,0.7888,6.927,-0.3019,-0.1898,9.8002,-1.4314,0.6669,-1.9924,-0.1898,-0.098,-0.5444,120,34.72,-9.1,-14.92,255.07,0.7,1.86,2,63.447,12.925905,77.6864,0,2907.03340894625,0,80.57097,0,0 / 0,10032,2018-08-07 18:41:52:677
-2.9805,4.0078,8.9872,-0.6003,0.7306,9.761,-0.7118,-0.6035,-1.1843,0.5058,-0.2503,-0.1396,120,35.35,-5.84,-13.98,262.01,-4.27,3.52,2,66.178,12.925905,77.6864,0,2907.03340894625,0,80.57097,0,0 / 0,10532,2018-08-07 18:41:53:177
-0.5922,0.3782,9.8719,-0.4431,1.649,9.6568,-0.0216,-1.5513,1.3115,0.64,0.0171,-0.6115,120,35.72,1.33,-14.74,275.52,-8.47,2.36,2,65.372,12.925905,77.6864,0,2907.03340894625,0,80.57097,0,0 / 0,11032,2018-08-07 18:41:53:677
-2.3723,0.2621,8.9776,-0.5763,1.2241,9.7129,-0.7588,-1.1905,2.3177,-0.0151,0.2514,0.1661,120,35.49,6.15,-17.01,283.73,-7.33,2.81,2,64.707,12.925905,77.6864,0,2907.03340894625,0,80.57097,0,0 / 0,11532,2018-08-07 18:41:54:177
-0.3181,0.5123,11.7705,0.0639,1.5145,9.6888,-0.6589,-0.4615,0.3298,-0.1366,-0.1779,-0.489,80,32.7,8.61,-19.31,289.81,-9.24,-0.22,2,57.731,12.925905,77.6864,0,2907.03340894625,0,80.57097,0,0 / 0,12032,2018-08-07 18:41:54:677
-0.3444,1.9249,10.4537,-0.3716,1.3788,9.7021,0.2327,0.6525,0.1078,-0.1131,0.0288,0.0607,120,33.24,8.57,-17.84,289.79,-8.08,2.19,2,53.276,12.925905,77.6864,0,2907.03340894625,0,80.57097,0,0 / 0,12532,2018-08-07 18:41:55:177
-0.7227,1.373,9.3368,-0.2846,0.9894,9.7525,-0.2233,0.3391,-1.8271,-0.0652,-0.0831,-0.1066,80,34.11,7.99,-18.74,286.7,-5.89,1.81,2,60.877,12.925905,77.6864,0,2907.03340894625,0,80.57097,0,0 / 0,13032,2018-08-07 18:41:55:677
-0.2894,1.2066,7.5148,-0.2124,0.6822,9.7806,0.1444,0.534,-2.4472,-0.0812,0.3409,-0.2802,80,32.59,11,-19.56,290.87,-3.99,1.24,2,58.277,12.925905,77.6864,0,2907.03340894625,0,80.57097,0,0 / 0,13532,2018-08-07 18:41:56:177
0.5893,0.1568,8.1313,0.1174,0.2545,9.8026,-0.1104,0.0907,-0.659,0.0744,-0.261,-0.244,120,32.49,13.7,-20.4,294.27,-1.3,-0.12,2,57.155,12.925905,77.6864,0,2907.03340894625,0,80.57097,0,0 / 0,14033,2018-08-07 18:41:56:678
0.9772,-0.5244,8.8651,0.512,-0.0426,9.7932,0.7955,-0.1027,-0.2977,0.1191,0.3654,-0.2653,120,30.16,18.77,-19.11,300.65,1.36,-4.49,2,60.231,12.925905,77.6864,0,2907.03340894625,0,80.57097,0,0 / 0,14532,2018-08-07 18:41:57:177
0.0901,-0.7375,13.0957,0.4839,-0.3481,9.7885,-0.034,-0.3509,2.788,-0.1728,-0.5433,0.2695,80,29.53,20.5,-16.13,303.65,2.03,-2.83,2,61.645,12.925905,77.6864,0,2907.03340894625,0,80.57097,0,0 / 0,15032,2018-08-07 18:41:57:677
1.2537,-0.6214,11.7214,0.6969,0.1104,9.7812,0.1141,-0.3001,0.6695,-0.1973,-0.7009,-0.2365,80,34.62,19.57,-16.47,299.61,-1.09,-2.5,2,53.25,12.925905,77.6864,0,2907.03340894625,0,80.57097,0,0 / 0,15533,2018-08-07 18:41:58:178
0.7725,1.6711,9.5008,0.0416,0.2085,9.8043,-0.6757,1.4566,-1.5851,0.0083,0.3793,0.4452,80,37.84,14.46,-15.69,290.44,-1.07,-1.15,2,60.966,12.925905,77.6864,0,2907.03340894625,0,80.57097,0,0 / 0,16032,2018-08-07 18:41:58:677
0.0326,-1.002,10.1173,0.7991,0.1259,9.7732,0.1346,-1.088,3.0257,0.0967,0.5966,0.3153,80,24.21,2.76,-22.03,277.78,-1.65,-5.65,2,58.029,12.925905,77.6864,0,2907.03340894625,0,80.57097,0,0 / 0,17417,2018-08-07 18:42:00:062
0.9245,0.0826,14.446,1.1146,0.0966,9.7426,0.6352,-0.0116,1.5459,-0.6255,-0.1331,-0.44,80,24.72,7.79,-20.17,287.57,-1.86,-6.21,2,58.4,12.925905,77.6864,0,2907.03340894625,0,80.57097,0,0 / 0,17916,2018-08-07 18:42:00:561
-0.1086,0.377,11.397,0.8051,0.2354,9.7707,-0.6114,0.7733,0.8859,-0.0045,-0.0319,0.0873,80,26.52,14.29,-17.4,296.87,-1.33,-4.7,2,64.52,12.925905,77.6864,0,2907.03340894625,0,80.57097,0,0 / 0,18417,2018-08-07 18:42:01:062
0.2613,0.2047,10.6189,0.4999,0.2647,9.7903,0.4901,0.3406,-1.6761,-0.2228,0.212,-0.2728,80,34.25,7.42,-20.23,282.09,-1.55,-2.92,2,56.986,12.925905,77.6864,0,2907.03340894625,0,80.57097,0,0 / 0,18917,2018-08-07 18:42:01:562
0.3403,1.3419,7.7375,-0.1555,0.7261,9.7785,0.3219,0.2599,-1.791,0.0339,0.343,-0.0299,80,36.21,7.06,-18.18,282.98,-4.13,0.16,2,57.546,12.925905,77.6864,0,2907.03340894625,0,80.57097,0,0 / 0,19416,2018-08-07 18:42:02:061
-0.512,-0.018,8.7586,-0.0882,0.7605,9.7767,0.2806,-0.8295,-0.4245,0.1809,-0.2801,0.2471,120,34.56,5.32,-19.68,280.67,-4.45,0.52,2,57.946,12.925905,77.6864,0,2907.03340894625,0,80.57097,0,0 / 0,19917,2018-08-07 18:42:02:562
0.2194,0.2597,9.3954,0.1075,0.3931,9.7982,0.6303,0.042,2.1532,0.3013,0.3388,-0.1886,120,33.74,8.32,-20.51,283.95,-1.61,-1.35,2,49.615,12.925905,77.6864,0,2907.03340894625,0,80.57097,0,0 / 0,20417,2018-08-07 18:42:03:062
1.025,0.2549,12.3283,-0.017,0.6133,9.7874,0.2668,-0.0068,1.1188,-0.16,-0.5102,0.1917,120,35.55,9.21,-20.5,286.4,-4.07,0.84,2,45.346,12.925905,77.6864,0,2907.03340894625,0,80.57097,0,0 / 0,20916,2018-08-07 18:42:03:561
0.4576,0.9684,10.158,-0.036,0.9796,9.7575,-0.4658,0.0901,0.6743,0.1745,-0.0405,-0.2291,120,34.23,6.51,-19.66,284.82,-5.73,0.21,2,56.182,12.925905,77.6864,0,2907.03340894625,0,80.57097,0,0 / 0,21417,2018-08-07 18:42:04:062
0.2876,1.8722,9.2973,-0.0742,0.8464,9.7698,0.2709,0.7008,-2.47,-0.1355,0.13,-0.0576,120,32.55,9.2,-19.01,287.96,-5.17,0.16,2,63.305,12.925905,77.6864,0,2907.03340894625,0,80.57097,0,0 / 0,21917,2018-08-07 18:42:04:562
-0.1302,1.0654,8.3348,-0.2588,0.9413,9.7579,-0.4717,-0.3871,-0.6356,0.182,0.0597,0.1331,225,34.27,7.37,-17.87,284.45,-5.12,1.36,2,64.136,12.925905,77.6864,0,2907.03340894625,0,80.57097,0,0 / 0,22417,2018-08-07 18:42:05:062
0.2529,0.5243,9.5499,0.2086,0.5399,9.7896,0.3022,-0.4837,0.6629,-0.03,0.1619,-0.1226,225,32.6,10.98,-18.38,290.33,-4.56,-1.07,2,58.213,12.925905,77.6864,0,2907.03340894625,0,80.57097,0,0 / 0,22916,2018-08-07 18:42:05:561
-0.6605,-0.6333,9.6085,0.1367,1.0641,9.7478,-1.7642,-2.2003,2.1143,0.2427,0.2727,1.257,120,34.81,1.75,-20.34,276.64,-6.23,-0.8,2,58.018,12.925905,77.6864,0,2907.03340894625,0,80.57097,0,0 / 0,23417,2018-08-07 18:42:06:062
-0.8209,1.1611,9.6768,-0.9659,1.1157,9.695,0.1135,0.0105,0.0793,-0.0854,0.1534,0.5134,120,34.1,-12.07,-15.27,253.13,-6.61,5.49,2,47.248,12.925905,77.6864,0,2907.03340894625,0,80.57097,0,0 / 0,23917,2018-08-07 18:42:06:562
1.0813,0.8235,8.9597,-1.6079,1.2288,9.5956,1.5447,-0.3616,-0.4002,-0.0822,0.2195,0.7574,225,26.99,-21.03,-12.15,232.67,-7.13,9.38,2,63.353,12.925905,77.6864,0,2907.03340894625,0,80.57097,0,0 / 0,24417,2018-08-07 18:42:07:062
-1.2698,0.7517,10.4381,-1.4563,1.3152,9.6083,0.1563,-1.2942,0.7034,0.411,0.0948,0.1821,225,19.77,-26.67,-11.03,215.83,-6.86,8.46,2,74.273,12.925905,77.6864,0,2907.03340894625,0,80.57097,0,0 / 0,24916,2018-08-07 18:42:07:561
-1.4637,2.1499,8.816,-1.7179,1.367,9.5577,0.1571,0.571,0.4115,0.0754,-0.5379,-0.9588,225,29.98,-21.69,-10.11,234.67,-8.01,10.19,2,72.725,12.925905,77.6864,0,2907.03340894625,0,80.57097,0,0 / 0,25416,2018-08-07 18:42:08:061
-0.7922,1.1707,8.4389,-0.7412,0.6641,9.756,-0.1794,0.3038,-1.2103,0.0701,0.0171,-0.8778,120,37.12,-5.23,-15.75,264.02,-3.84,4.15,2,62.543,12.925905,77.6864,0,2907.03340894625,0,80.57097,0,0 / 0,25917,2018-08-07 18:42:08:562
-0.3744,1.0307,7.9541,-0.0111,0.8965,9.7656,-0.4319,-0.1436,-0.823,0.5026,-0.2652,-0.0416,80,36.26,3.54,-20.9,278.78,-4.12,0.61,2,51.554,12.925905,77.6864,0,2907.03340894625,0,80.57097,0,0 / 0,26417,2018-08-07 18:42:09:062
0.7772,-0.0623,8.8328,0.7063,0.828,9.7461,0.0641,-1.0546,2.6249,0.1553,0.2845,-0.9726,120,27.65,18.6,-24.42,304.51,-4.44,-4.97,2,60.55,12.925905,77.6864,0,2907.03340894625,0,80.57097,0,0 / 0,26917,2018-08-07 18:42:09:562
-0.3121,-0.0467,12.709,0.4947,0.5413,9.7792,-0.285,0.6288,1.042,-0.3198,-0.1885,-0.3697,225,21.14,25.79,-23.66,321.21,-4.17,-2.88,2,70.419,12.925905,77.6864,0,2907.03340894625,0,80.57097,0,0 / 0,27417,2018-08-07 18:42:10:062
0.2122,1.4843,9.265,0.7566,1.2078,9.7025,0.0583,0.2564,-1.1706,0.068,0.1651,-0.2429,225,21.41,23.75,-26.06,319.42,-7.07,-4.46,2,64.683,12.925905,77.6864,0,2907.03340894625,0,80.57097,0,0 / 0,27917,2018-08-07 18:42:10:562
0.1919,2.1332,8.6365,1.0836,1.4281,9.6414,-1.1797,0.5969,-2.0384,0.052,0.0853,0.18,225,19.45,22.88,-26.36,320.07,-8.22,-6.64,2,60.357,12.925905,77.6864,0,2907.03340894625,0,80.57097,0,0 / 0,28417,2018-08-07 18:42:11:062
-0.0476,1.1911,7.941,0.6794,1.4071,9.6814,-0.9037,-0.6239,-0.9174,0.1937,0.3803,0.4303,225,23.63,13.83,-23.3,303.49,-8.25,-4.01,2,57.606,12.925905,77.6864,0,2907.03340894625,0,80.57097,0,0 / 0,28917,2018-08-07 18:42:11:562
1.7912,0.0215,9.9892,1.1193,0.588,9.7248,0.6215,0.0858,-1.2306,-0.2825,-0.1949,-0.2184,120,21.39,15.95,-24.13,306.77,-4.02,-5.98,2,66.336,12.925905,77.6864,0,2907.03340894625,0,80.57097,0,0 / 0,29416,2018-08-07 18:42:12:061
0.1583,2.6396,6.5882,0.1662,1.1002,9.7433,0.4041,1.3662,-1.0776,0.4696,0.6797,0.4751,120,25.42,14.41,-23.3,302.93,-6.44,-0.98,2,67.84,12.925905,77.6864,0,2907.03340894625,0,80.57097,0,0 / 0,29916,2018-08-07 18:42:12:561
1.7206,0.3232,8.0271,0.5121,1.6249,9.6575,1.6919,-0.89,0.9033,0.5516,-1.2357,0.2812,80,28.58,7.85,-24.33,291.51,-8.41,0.02,2,66.763,12.925905,77.6864,0,2907.03340894625,0,80.57097,0,0 / 0,30416,2018-08-07 18:42:13:061
0.472,2.6527,9.2338,0.8309,1.2659,9.689,-1.0384,1.3104,-2.2492,0.3119,0.0384,0.2865,80,32,3.66,-25.01,281.35,-7.42,-4.9,2,54.621,12.925905,77.6864,0,2907.03340894625,0,80.57097,0,0 / 0,30917,2018-08-07 18:42:13:562
0.6408,1.956,7.9721,0.439,1.6025,9.6649,0.6303,0.2359,-2.5225,0.2171,0.0586,0.0639,80,34.68,-1.76,-23.95,272.68,-9.41,-2.6,2,54.029,12.925905,77.6864,0,2907.03340894625,0,80.57097,0,0 / 0,31417,2018-08-07 18:42:14:062
0.454,2.5426,6.696,0.4091,1.6816,9.6527,0.0785,0.7471,-3.1482,-0.0194,0.2227,-0.2078,80,36.25,3.88,-23.26,281.44,-9.77,-2.99,2,53.174,12.925905,77.6864,0,2907.03340894625,0,80.57097,0,0 / 0,31916,2018-08-07 18:42:14:561
-0.6748,0.7314,9.9665,0.4164,1.333,9.7067,-0.0214,-0.2503,-0.8706,-0.3837,0.1161,-0.2025,80,36.68,6.27,-23.22,283.47,-8.67,-2.79,2,56.317,12.925905,77.6864,0,2907.03340894625,0,80.57097,0,0 / 0,32417,2018-08-07 18:42:15:062
0.8132,0.8331,7.419,0.2158,1.3562,9.71,-0.0494,-0.5254,3.3627,0.428,0.2418,-0.1929,80,34.69,10.73,-21.95,290.68,-7.07,-1.89,2,57.629,12.925905,77.6864,0,2907.03340894625,0,80.57097,0,0 / 0,32916,2018-08-07 18:42:15:561
-0.0895,-0.0803,14.7764,-0.435,1.6012,9.6653,-0.2441,0.5698,1.2289,-0.1557,-0.7105,0.425,120,35.05,10.06,-18.42,290.92,-9.4,2.58,2,62.476,12.925905,77.6864,0,2907.03340894625,0,80.57097,0,0 / 0,33417,2018-08-07 18:42:16:062
-0.3492,1.5753,10.7984,-0.1968,1.5524,9.681,0.0929,-0.1344,1.7386,-0.2143,-0.1853,-0.5188,120,33.1,10.11,-19.88,292.33,-9.66,1.4,2,60.558,12.925905,77.6864,0,2907.03340894625,0,80.57097,0,0 / 0,33916,2018-08-07 18:42:16:561
-1.8277,1.3179,13.5111,-1.0458,1.3701,9.654,0.2185,0.6749,2.1275,-0.2516,0.1406,0.1203,120,34.21,10.91,-15.74,293.01,-8.03,6.18,2,64.011,12.925905,77.6864,0,2907.03340894625,0,80.57097,0,0 / 0,34417,2018-08-07 18:42:17:062
0.1308,1.4006,12.5761,-0.256,1.3697,9.7072,0.3572,0.8734,-0.356,0.0563,-0.4325,-0.3559,120,30.98,10.11,-19.28,292.78,-7.84,2.41,2,63.35,12.925905,77.6864,0,2907.03340894625,0,80.57097,0,0 / 0,34916,2018-08-07 18:42:17:561
-0.3217,2.3259,8.9118,-0.8093,1.4543,9.6644,-0.2393,0.4084,-1.2168,0.3769,0.2024,0.197,120,28.1,14.63,-20.06,303.22,-6.81,3.63,2,68.032,12.925905,77.6864,0,2907.03340894625,0,80.57097,0,0 / 0,35416,2018-08-07 18:42:18:061
0.4229,2.1763,8.4437,-0.8949,1.861,9.5868,1.2428,0.4063,-2.1668,0.0776,-0.1193,-0.1854,120,30.43,10.17,-21.93,297.47,-10.26,6.06,2,63.41,12.925905,77.6864,0,2907.03340894625,0,80.57097,0,0 / 0,35916,2018-08-07 18:42:18:561
-0.3193,2.0242,6.8743,0.0681,1.4013,9.7058,-0.2707,0.6395,-2.2679,0.0776,0.2291,-0.2674,120,22.39,13.87,-24.77,307.56,-7.94,-1.03,2,51.831,12.925905,77.6864,0,2907.03340894625,0,80.57097,0,0 / 0,36416,2018-08-07 18:42:19:061
0.5893,0.5686,10.1736,0.2528,1.2887,9.7183,0.1904,-0.4913,0.0696,-0.4487,-0.4271,-0.1481,120,22.91,12.6,-20.96,304.53,-8.61,-0.56,2,62.047,12.925905,77.6864,0,2907.03340894625,0,80.57097,0,0 / 0,36916,2018-08-07 18:42:19:561
-0.8137,0.6152,11.294,0.3486,0.9037,9.7587,-1.0746,-0.7708,-0.2163,-0.4902,-0.1992,0.0724,120,23.04,16.76,-20.29,309.22,-7.58,-2.16,2,58.551,12.925905,77.6864,0,2907.03340894625,0,80.57097,0,0 / 0,37416,2018-08-07 18:42:20:061
1.2764,2.2816,8.3887,-0.61,1.6993,9.639,-1.0806,-1.0433,3.2545,0.3993,0.2908,1.1376,120,31.56,5.66,-20.54,287.91,-9.98,3.62,2,46.028,12.925905,77.6864,0,2907.03340894625,0,80.57097,0,0 / 0,37917,2018-08-07 18:42:20:562
-0.0164,1.0414,9.6373,0.028,1.4131,9.7043,-1.5326,-1.2499,5.5001,0.5772,0.3526,0.3941,120,33.7,7.48,-22.89,285.83,-7.19,-0.99,2,54.554,12.925905,77.6864,0,2907.03340894625,0,80.57097,0,0 / 0,38416,2018-08-07 18:42:21:061
-0.1206,0.7338,12.8144,-0.6305,1.6758,9.6418,0.4178,-0.4036,3.0151,-0.2154,-0.2556,0.5922,120,38.37,-4,-17.81,269.73,-10.31,4.62,2,40.538,12.925905,77.6864,0,2907.03340894625,0,80.57097,0,0 / 0,38917,2018-08-07 18:42:21:562
0.0638,1.0127,12.1512,-0.3625,1.4586,9.6908,0.1562,-0.4644,1.0057,-0.1174,-0.0767,-0.4038,120,40.04,-1.98,-15.12,270.85,-8.91,2.2,2,40.442,12.925905,77.6864,0,2907.03340894625,0,80.57097,0,0 / 0,39416,2018-08-07 18:42:22:061
-0.6641,1.1492,11.5083,-0.3858,1.0681,9.7407,-0.1836,0.6733,0.1974,0.1521,0.0149,-0.0064,120,40.55,3.68,-15.02,278.15,-6.25,2.27,2,45.858,12.925905,77.6864,0,2907.03340894625,0,80.57097,0,0 / 0,39917,2018-08-07 18:42:22:562
0.1823,1.1899,8.5611,-0.3707,1.1806,9.7283,0.2507,0.0126,-2.1117,0.2661,0.0171,0.0383,120,40.44,-0.81,-13.92,271.02,-6.28,2.17,2,49.1,12.925905,77.6864,0,2907.03340894625,0,80.57097,0,0 / 0,40417,2018-08-07 18:42:23:062
-0.8209,2.3666,5.8353,-0.1047,1.0843,9.746,0.2677,0.3619,-1.3066,0.1926,0.3494,0.0522,120,41.28,4.58,-15.6,279.13,-5.86,-0.14,2,60.447,12.925905,77.6864,0,2907.03340894625,0,80.57097,0,0 / 0,40917,2018-08-07 18:42:23:562
0.6025,0.2621,8.0966,0.0083,1.0477,9.7505,0.5925,-0.705,1.0876,-0.1877,0.1055,-0.3463,120,40.99,-0.55,-12.44,270.4,-6.13,-0.05,2,63.479,12.925905,77.6864,0,2907.03340894625,0,80.57097,0,0 / 0,41417,2018-08-07 18:42:24:062
0.7545,1.6005,7.1724,0.248,0.6035,9.7849,0.2692,0.6135,-1.8256,-0.192,-0.016,-0.2547,120,39.62,8.16,-14.93,282.72,-4.91,-1.95,2,65.854,12.925905,77.6864,0,2907.03340894625,0,80.57097,0,0 / 0,41916,2018-08-07 18:42:24:561
0.2122,-0.188,9.9162,0.3356,0.889,9.7605,-0.1316,-0.6442,-0.3329,-0.372,-0.506,-0.1588,120,39.14,9.62,-12.84,286.03,-6.09,-0.88,2,69.997,12.925905,77.6864,0,2907.03340894625,0,80.57097,0,0 / 0,42416,2018-08-07 18:42:25:061
0.7042,0.3064,8.7969,0.1588,1.225,9.7285,0.5224,-0.492,4.534,0.264,0.2802,-0.2056,120,37.99,12.62,-13.07,290.45,-6.67,-1.58,2,55.816,12.925905,77.6864,0,2907.03340894625,0,80.57097,0,0 / 0,42917,2018-08-07 18:42:25:562
-1.0124,0.5135,12.2805,0.0514,1.2967,9.7204,-0.7174,0.1522,4.4153,-0.2559,-0.0532,0.5571,120,40.9,8.66,-10.5,284.14,-7.6,-0.3,2,57.941,12.925905,77.6864,0,2907.03340894625,0,80.57097,0,0 / 0,43417,2018-08-07 18:42:26:062
-1.1489,0.9899,15.0003,-0.1376,1.5174,9.6876,-0.9296,-0.1351,5.613,-0.5467,0.1545,-0.4783,120,39.3,8.39,-11.38,284.19,-10.24,0.2,2,59.135,12.925905,77.6864,0,2907.03340894625,0,80.57097,0,0 / 0,43916,2018-08-07 18:42:26:561
-0.9741,1.9333,10.9182,-0.4871,1.8386,9.6204,0.3352,0.5226,-0.0888,-0.2825,0.0576,-0.3761,120,39.1,13.77,-11.87,293.12,-10.81,2.9,2,69.645,12.925905,77.6864,0,2907.03340894625,0,80.57097,0,0 / 0,44417,2018-08-07 18:42:27:062
0.3774,1.5921,8.1804,0.2819,1.9686,9.6029,-0.501,-0.5278,0.7642,0.2672,-0.2791,-0.4741,120,35.59,16.28,-16.53,297.32,-11.01,-1.32,2,67.332,12.925905,77.6864,0,2907.03340894625,0,80.57097,0,0 / 0,44917,2018-08-07 18:42:27:562
0.1093,2.5079,10.152,-0.0013,1.5833,9.678,-0.3167,0.63,0.5053,0.4366,0.0895,0.0777,120,34.81,18.59,-12.06,300.19,-7.52,-0.2,2,61.498,12.925905,77.6864,0,2907.03340894625,0,80.57097,0,0 / 0,45417,2018-08-07 18:42:28:062
0.1164,1.3275,8.5204,0.1237,1.5504,9.6825,0.0052,-0.4347,-3.2479,0.2022,0.0245,-0.0448,120,36.62,14.12,-13.03,293.04,-9.1,-0.73,2,49.672,12.925905,77.6864,0,2907.03340894625,0,80.57097,0,0 / 0,45917,2018-08-07 18:42:28:562
-1.1441,2.0997,9.0195,0.0486,1.3784,9.7092,-0.6387,1.0893,-3.9598,-0.1003,0.1555,-0.064,120,36.16,16.81,-13.28,297.23,-8.14,-0.72,2,63.484,12.925905,77.6864,0,2907.03340894625,0,80.57097,0,0 / 0,46417,2018-08-07 18:42:29:062
0.6803,1.616,6.0579,0.0046,1.5185,9.6884,0.2993,-0.3712,-3.7243,0.3567,-0.1097,0.1299,120,37.97,11.72,-13.09,289.91,-8.08,0.29,2,51.657,12.925905,77.6864,0,2907.03340894625,0,80.57097,0,0 / 0,46916,2018-08-07 18:42:29:561
-0.6341,2.2074,5.8137,0.1907,1.1522,9.7369,-0.6816,0.8516,-2.2917,0.1106,0.3004,-0.0075,120,36.19,17.69,-12.67,297.81,-6.39,-1.86,2,69.231,12.925905,77.6864,0,2907.03340894625,0,80.57097,0,0 / 0,47417,2018-08-07 18:42:30:062
-0.1026,0.6655,10.1185,-0.1668,1.2572,9.7243,-0.1246,-0.3983,0.3669,-0.2985,0.0107,0.262,120,39.24,12.56,-11.01,290.34,-7.37,0.98,2,65.833,12.925905,77.6864,0,2907.03340894625,0,80.57097,0,0 / 0,47917,2018-08-07 18:42:30:562
0.472,1.1863,10.8798,0.4323,1.2185,9.721,0.9534,0.255,-0.294,-0.5786,-0.2919,0.0873,120,37.44,12.04,-13.96,290.18,-8.42,-1.77,2,65.087,12.925905,77.6864,0,2907.03340894625,0,80.57097,0,0 / 0,48417,2018-08-07 18:42:31:062
0.4504,1.6232,9.5906,0.1307,1.6725,9.6621,-1.2636,-0.3422,2.0737,0.2086,-0.1459,0.5848,120,39.62,7.21,-12,282.43,-9.43,-0.35,2,70.698,12.925905,77.6864,0,2907.03340894625,0,80.57097,0,0 / 0,48916,2018-08-07 18:42:31:561
1.2429,1.6747,9.9449,0.5777,1.3284,9.6991,-0.966,0.5892,4.0247,-0.6671,-0.5912,-0.325,120,38.5,11.72,-13.39,289.57,-9.25,-2.32,2,68.672,12.925905,77.6864,0,2907.03340894625,0,80.57097,0,0 / 0,49417,2018-08-07 18:42:32:062
0.4768,2.0422,11.6699,0.0013,1.7366,9.6517,0.5193,0.1452,1.8279,-0.1355,-0.1395,0.5592,120,40.65,6,-11.43,280.79,-10,-0.02,2,64.809,12.925905,77.6864,0,2907.03340894625,0,80.57097,0,0 / 0,49916,2018-08-07 18:42:32:561
0.697,1.7836,9.6169,0.3037,1.6851,9.656,-0.5983,-0.1848,0.287,-0.4199,-0.164,-0.5881,120,40.65,6.3,-11.43,280.59,-10.82,-1.74,2,61.173,12.925905,77.6864,0,2907.03340894625,0,80.57097,0,0 / 0,50417,2018-08-07 18:42:33:062
-0.1852,1.9285,10.243,-0.016,1.5781,9.6788,-0.163,0.7002,-1.2492,0.2033,0.2813,0.1065,120,41.72,5.64,-9.09,279.76,-8.71,-0.52,2,61.304,12.925905,77.6864,0,2907.03340894625,0,80.57097,0,0 / 0,50917,2018-08-07 18:42:33:562
-0.0057,1.124,9.3188,0.2394,2.2636,9.5388,0.5859,-1.0144,-2.7211,0.4142,-0.033,-0.5519,120,42.19,3.87,-10.01,277.82,-12.42,-1.58,2,67.466,12.925905,77.6864,0,2907.03340894625,0,80.57097,0,0 / 0,51417,2018-08-07 18:42:34:062
-0.7634,2.1799,9.1416,0.4022,1.8081,9.6301,-0.8569,0.414,-1.6346,0.0392,0.2599,-0.0448,120,43.26,11.05,-11.36,285.78,-10.33,-3.5,2,50.791,12.925905,77.6864,0,2907.03340894625,0,80.57097,0,0 / 0,51917,2018-08-07 18:42:34:562
1.2178,2.7652,7.5208,0.302,1.4121,9.6998,0.3425,0.4311,-2.9466,0.1457,-0.0745,0.1874,120,47.15,4.13,-10.03,276.26,-8.28,-1.78,2,39.931,12.925905,77.6864,0,2907.03340894625,0,80.57097,0,0 / 0,52417,2018-08-07 18:42:35:062
-0.6712,1.9776,5.6413,0.66,1.3851,9.6859,-0.5714,0.2949,-3.7089,0.1202,0.13,-0.342,120,47.13,11.37,-14.33,284.39,-7.71,-4.33,2,44.402,12.925905,77.6864,0,2907.03340894625,0,80.57097,0,0 / 0,52916,2018-08-07 18:42:35:561
0.5642,0.978,6.0352,0.5351,1.6024,9.66,-0.8357,-0.9633,-1.4988,-0.1515,-0.0543,0.4282,120,48.97,7.17,-13.53,279.98,-9.4,-3.17,2,41.907,12.925905,77.6864,0,2907.03340894625,0,80.57097,0,0 / 0,53417,2018-08-07 18:42:36:062
0.4768,1.0283,7.7829,-0.1086,1.565,9.6804,1.457,-0.6459,-1.7984,-0.1632,-0.1843,-0.1779,120,48.89,9.17,-9.06,282.02,-9.18,0.64,2,41.503,12.925905,77.6864,0,2907.03340894625,0,80.57097,0,0 / 0,53917,2018-08-07 18:42:36:562
-0.2762,0.4752,9.0195,-0.9387,1.617,9.6268,-0.9272,-1.2177,0.9619,0.5175,-0.0117,0.4985,120,46.77,8.51,-5.52,282.94,-9.49,5.57,2,44.344,12.925905,77.6864,0,2907.03340894625,0,80.57097,0,0 / 0,54416,2018-08-07 18:42:37:061
2.2916,0.802,10.8894,1.1669,1.2628,9.6548,1.1549,-0.385,2.1359,-0.0609,0.5135,-0.097,80,42.65,8.36,-11.11,281,-7.57,-7.99,2,46.608,12.925905,77.6864,0,2907.03340894625,0,80.57097,0,0 / 0,54916,2018-08-07 18:42:37:561
0.4061,0.9983,15.9687,0.2998,1.0672,9.7438,-0.6108,1.2088,3.7449,-0.3656,-0.1076,0.3014,80,41.65,10.13,-9.89,284.62,-8.09,-2.45,2,45.537,12.925905,77.6864,0,2907.03340894625,0,80.57097,0,0 / 0,55417,2018-08-07 18:42:38:062
0.8108,1.78,11.3683,-0.007,1.9697,9.6068,-0.0626,0.0776,-0.0973,0.2043,-0.2279,0.0213,80,40.29,4.08,-4.97,277.02,-11.59,0.04,2,47.833,12.925905,77.6864,0,2907.03340894625,0,80.57097,0,0 / 0,55917,2018-08-07 18:42:38:562
1.0071,3.5027,9.0603,0.331,1.9156,9.612,0.5501,1.214,-3.3782,-0.4423,-0.2599,-0.3505,80,36.79,5.94,-7.28,280.86,-12.05,-1.48,2,47.191,12.925905,77.6864,0,2907.03340894625,0,80.57097,0,0 / 0,56417,2018-08-07 18:42:39:062
-2.1006,1.6005,7.9386,-1.0038,1.0954,9.6934,-0.6228,0.3433,-1.1587,0.3748,0.4112,0.0926,80,35.64,7.32,-1.05,281.62,-5.51,4.92,2,46.794,12.925905,77.6864,0,2907.03340894625,0,80.57097,0,0 / 0,56918,2018-08-07 18:42:39:563
-0.7898,0.887,6.1956,-0.4245,0.827,9.7625,0.0642,-0.4845,-1.4908,-0.1802,0.0096,-0.2568,80,33.63,11.53,-2.14,289.9,-5.3,2.42,2,49.94,12.925905,77.6864,0,2907.03340894625,0,80.57097,0,0 / 0,57416,2018-08-07 18:42:40:061
-0.4007,-0.2383,8.1912,-1.0859,0.9129,9.7035,1.0441,-1.0085,-1.6735,0.4344,-0.4495,0.3462,80,35.41,11.78,-0.37,289.49,-5.34,6.39,2,50.276,12.925905,77.6864,0,2907.03340894625,0,80.57097,0,0 / 0,57916,2018-08-07 18:42:40:561
0.5797,0.2825,9.8108,-0.0914,0.2875,9.802,-0.5902,-0.8069,3.7702,-0.323,-0.1875,-0.2845,80,36.39,16.35,-5.31,294.31,-2.51,0.88,2,48.002,12.925905,77.6864,0,2907.03340894625,0,80.57097,0,0 / 0,58416,2018-08-07 18:42:41:061
0.2098,-1.8149,14.0378,0.0916,-0.1677,9.8048,-0.1686,0.6622,2.3733,-0.3997,-0.7233,0.5922,80,39.92,11.03,-9.27,285.15,0.98,-0.54,2,49.019,12.925905,77.6864,0,2907.03340894625,0,80.57097,0,0 / 0,58916,2018-08-07 18:42:41:561
4.693,-1.9453,2.8533,2.52,1.4603,9.3642,3.9854,0.5017,6.7052,0.7945,-2.4181,0.2588,80,36.76,7.64,-17.29,283.28,-7.01,-9.26,2,48.11,12.925905,77.6864,0,2907.03340894625,0,80.57097,0,0 / 0,59417,2018-08-07 18:42:42:062
0.442,1.8734,11.0869,0.6508,1.4942,9.6703,-0.1655,0.8174,1.7759,-0.2399,0.2855,0.5986,80,34.56,22.8,-13.75,304.49,-10.24,-4.08,2,49.677,12.925905,77.6864,0,2907.03340894625,0,80.57097,0,0 / 0,59917,2018-08-07 18:42:42:562
1.1483,1.1516,8.5072,1.2492,0.8477,9.6898,-1.0454,0.4975,-0.4331,0.5228,-0.1694,0.1171,80,37.19,16.56,-16.24,294.8,-4.96,-7.35,2,51.197,12.925905,77.6864,0,2907.03340894625,0,80.57097,0,0 / 0,60416,2018-08-07 18:42:43:061
-0.5563,2.3786,5.3241,0.7746,0.4683,9.7648,-0.7382,1.8161,-3.4729,0.0776,0.8853,0.2354,80,37.11,18.87,-12.36,296.86,-2.42,-6.56,2,51.71,12.925905,77.6864,0,2907.03340894625,0,80.57097,0,0 / 0,60917,2018-08-07 18:42:43:562
0.0721,1.7286,5.0978,0.6503,0.8975,9.7438,-0.1601,0.8743,-3.1663,0.6784,-0.1065,0.3526,80,39.12,14.99,-13.03,291.5,-3.66,-3.5,2,49.903,12.925905,77.6864,0,2907.03340894625,0,80.57097,0,0 / 0,61416,2018-08-07 18:42:44:061
1.808,-0.0539,12.539,1.0928,-0.1823,9.7439,-2.1528,1.2784,0.6703,0.2182,-0.5177,0.6487,80,38.64,16.8,-13.88,292.76,0.92,-5.27,2,53.927,12.925905,77.6864,0,2907.03340894625,0,80.57097,0,0 / 0,61917,2018-08-07 18:42:44:562
1.6272,0.4177,14.6172,1.7191,0.2252,9.6522,-1.1583,-1.5984,-1.9104,-2.0519,-1.6405,-0.359,80,34.96,18.65,-15.3,297.36,-1.32,-10.1,2,53.615,12.925905,77.6864,0,2907.03340894625,0,80.57097,0,0 / 0,62417,2018-08-07 18:42:45:062
1.8929,0.2932,8.603,0.8421,1.4537,9.6617,2.7415,-0.1764,-3.9675,-0.2868,0.3068,-0.3804,80,38.92,15.36,-16.27,292.52,-9.06,-5.51,2,48.882,12.925905,77.6864,0,2907.03340894625,0,80.57097,0,0 / 0,62917,2018-08-07 18:42:45:562
1.784,2.539,9.1788,0.2887,1.3447,9.7097,0.8452,-2.1629,4.1906,0.428,0.2386,0.409,80,40.52,14.99,-13.63,291.86,-7.88,-1.7,2,50.11,12.925905,77.6864,0,2907.03340894625,0,80.57097,0,0 / 0,63417,2018-08-07 18:42:46:062
-2.1329,1.1444,9.5834,-0.3777,1.0891,9.7387,-0.9618,1.1154,-3.1718,0.2863,0.6456,0.5624,30,45.34,15.47,-9.81,289.58,-5.55,0.79,2,50.826,12.925905,77.6864,0,2907.03340894625,0,80.57097,0,0 / 0,63917,2018-08-07 18:42:46:562
0.6516,-0.2048,11.2462,0.1297,1.4521,9.6977,0.348,-0.9331,-1.9095,0.0701,-0.6168,-0.5891,30,46.06,9.81,-10.21,283.96,-7.98,0.93,2,51.653,12.925905,77.6864,0,2907.03340894625,0,80.57097,0,0 / 0,64418,2018-08-07 18:42:47:063
-0.2654,2.308,9.0614,-0.4124,1.0194,9.7448,0.1585,1.2935,-1.4726,0.1617,0.1247,-0.6062,80,34.19,27.81,-10.41,310.72,-5.51,2.01,2,51.198,12.925905,77.6864,0,2907.03340894625,0,80.57097,0,0 / 0,64916,2018-08-07 18:42:47:561
0.235,0.7553,6.7127,0.3052,1.0413,9.7464,-0.172,-0.6186,-1.6464,0.4376,0.0448,-0.4879,80,29.18,32.71,-14.72,319.14,-5.11,-2.01,2,52.823,12.925905,77.6864,0,2907.03340894625,0,80.57097,0,0 / 0,65417,2018-08-07 18:42:48:062
0.0159,2.5151,5.3073,0.0497,1.0308,9.7522,0.315,1.5619,-4.3182,0.2512,0.4932,-0.3015,80,21.73,37.5,-12.52,329.95,-6.03,-0.29,2,54.349,12.925905,77.6864,0,2907.03340894625,0,80.57097,0,0 / 0,65917,2018-08-07 18:42:48:562
-0.3013,0.8619,6.8468,0.036,0.8956,9.7656,-0.1346,-0.2074,-0.1158,0.4312,0.098,-0.3399,80,19.63,38.41,-12.49,332.59,-4.28,-0.51,2,50.421,12.925905,77.6864,0,2907.03340894625,0,80.57097,0,0 / 0,66417,2018-08-07 18:42:49:062
-0.0619,3.0897,4.3844,0.1527,0.8865,9.7653,1.2803,2.221,-2.7044,0.7082,0.604,-0.0096,80,10.71,41.46,-12.09,344.63,-3.35,-2.13,2,49.076,12.925905,77.6864,0,2907.03340894625,0,80.57097,0,0 / 0,66917,2018-08-07 18:42:49:562
2.7812,0.6811,9.9054,0.3792,0.8993,9.758,2.3937,-0.7677,-0.7231,-0.3709,-0.376,0.1171,80,13.15,40.88,-13.89,342.56,-6.17,-1.12,2,54.234,12.925905,77.6864,0,2907.03340894625,0,80.57097,0,0 / 0,67417,2018-08-07 18:42:50:062
1.1447,3.4332,6.9498,1.3443,1.449,9.6054,0.5377,1.6321,-0.2872,0.3652,0.244,-0.7585,80,-6.29,41.36,-15.54,4.95,-8.5,-7.97,2,56.085,12.925905,77.6864,0,2907.03340894625,0,80.57097,0,0 / 0,67917,2018-08-07 18:42:50:562
1.6344,1.6902,9.7043,1.6718,2.4163,9.3561,-1.8042,-0.9595,1.0511,-0.1547,-0.8415,0.0436,80,-12.42,37.59,-18.53,12.22,-14.73,-8.42,2,58.654,12.925905,77.6864,0,2907.03340894625,0,80.57097,0,0 / 0,68417,2018-08-07 18:42:51:062
1.4871,1.98,6.3141,2.1829,2.3712,9.2619,0.0871,-0.2526,0.7496,0.1244,0.8011,-0.1343,120,-20.88,30.38,-12.41,27.31,-13.68,-15.13,2,55.883,12.925905,77.6864,0,2907.03340894625,0,80.57097,0,0 / 0,68917,2018-08-07 18:42:51:562
1.1783,0.1256,15.211,1.7993,1.3404,9.5465,-0.2508,0.8694,3.0521,-0.5989,-0.2471,0.4985,120,-13.67,34.41,-8.24,19.37,-9.34,-10.07,2,56.224,12.925905,77.6864,0,2907.03340894625,0,80.57097,0,0 / 0,69417,2018-08-07 18:42:52:062
2.7237,3.0095,9.8743,2.004,2.4417,9.284,0.5769,0.2804,-0.2908,-0.2047,-0.5209,-0.1907,120,-2.55,35.96,-15.66,359.78,-13.41,-11.14,2,55.943,12.925905,77.6864,0,2907.03340894625,0,80.57097,0,0 / 0,69918,2018-08-07 18:42:52:563
-0.4426,2.3918,11.1791,1.3207,2.7338,9.3248,-0.7508,0.5972,-0.4947,-0.0236,0.4219,0.1065,120,0.62,42.57,-18.8,355.51,-16.19,-8.06,2,56.159,12.925905,77.6864,0,2907.03340894625,0,80.57097,0,0 / 0,70417,2018-08-07 18:42:53:062
1.1866,2.1846,8.4976,1.0271,2.5697,9.4081,0.6733,-0.4809,-1.8397,0.2576,0.0565,-0.1417,120,6.48,44.03,-19.7,350.22,-14.58,-6.34,2,57.493,12.925905,77.6864,0,2907.03340894625,0,80.57097,0,0 / 0,70917,2018-08-07 18:42:53:562
-0.9167,1.4245,7.905,0.2993,0.6429,9.781,-0.7076,0.781,-1.3032,0.5154,-0.1768,-0.7883,120,-1.97,43.7,-14.93,2.06,-2.46,-1.51,2,53.293,12.925905,77.6864,0,2907.03340894625,0,80.57097,0,0 / 0,71416,2018-08-07 18:42:54:061
2.2233,2.0242,8.7861,0.1126,1.3512,9.7125,1.9759,-0.6659,-2.3912,0.0477,0.8309,1.7012,120,17.13,37.87,-14.26,336.18,-7.92,-1.8,2,61.054,12.925905,77.6864,0,2907.03340894625,0,80.57097,0,0 / 0,71917,2018-08-07 18:42:54:562
0.1954,2.0111,8.7993,0.1031,1.2487,9.7263,0.4822,0.4415,-0.885,0.0168,0.3164,0.4538,80,18.14,34.78,-9.6,333.28,-7.32,-0.61,2,53.495,12.925905,77.6864,0,2907.03340894625,0,80.57097,0,0 / 0,72417,2018-08-07 18:42:55:062
0.0614,2.0302,8.494,0.028,1.5326,9.6861,-0.1988,0.39,-0.3956,0.0126,0.6797,0.1075,80,36.04,17.31,-8.25,296.26,-8.92,-1.68,2,51.933,12.925905,77.6864,0,2907.03340894625,0,80.57097,0,0 / 0,72917,2018-08-07 18:42:55:562
-0.1553,1.6496,11.1408,0.0221,1.7279,9.6532,0.0018,-0.3006,-0.0628,-0.4636,0.0405,-0.6264,80,39.89,17.37,-12.99,295.53,-11.59,-0.64,2,59.264,12.925905,77.6864,0,2907.03340894625,0,80.57097,0,0 / 0,73416,2018-08-07 18:42:56:061
-1.9186,1.7549,9.7031,-0.2545,1.9067,9.6161,-1.174,0.0156,0.6953,-0.0279,0.1428,0.36,120,39.23,12.61,-13.37,291.76,-11.27,1.24,2,60.891,12.925905,77.6864,0,2907.03340894625,0,80.57097,0,0 / 0,73917,2018-08-07 18:42:56:562
-0.8484,0.462,13.4644,-0.125,1.6589,9.6645,0.236,-0.7328,2.2327,-0.6521,-0.1193,-0.8533,120,37.31,19.78,-13.23,301.73,-13.26,1.47,2,63.326,12.925905,77.6864,0,2907.03340894625,0,80.57097,0,0 / 0,74417,2018-08-07 18:42:57:062
-0.7335,2.3965,13.3303,-0.5531,2.6752,9.4185,-1.1163,0.1447,-0.18,-0.0556,0.0149,0.5677,80,35.47,24.02,-15.21,309.25,-15.86,3.58,2,53.353,12.925905,77.6864,0,2907.03340894625,0,80.57097,0,0 / 0,74917,2018-08-07 18:42:57:562
-0.9071,4.6315,12.3212,-0.335,2.2255,9.5449,-0.3263,1.8431,0.4998,0.0349,0.1225,-0.2227,80,34.64,25.78,-13.7,309.66,-12.89,1.59,2,49.598,12.925905,77.6864,0,2907.03340894625,0,80.57097,0,0 / 0,75417,2018-08-07 18:42:58:062
-0.542,1.6388,9.9425,-0.2181,1.3466,9.7113,-0.1501,-0.1934,-1.3389,-0.1621,-0.1065,-0.1044,80,38.24,27.83,-13.09,308.17,-7.89,1.29,2,55.577,12.925905,77.6864,0,2907.03340894625,0,80.57097,0,0 / 0,75916,2018-08-07 18:42:58:561
-0.852,1.1875,8.506,-0.5186,2.2868,9.5222,1.3845,-1.3313,5.0841,-0.0109,0.8501,0.1938,80,38.69,18.89,-13.85,299.68,-13.73,1.47,2,54.923,12.925905,77.6864,0,2907.03340894625,0,80.57097,0,0 / 0,76417,2018-08-07 18:42:59:062
-1.0052,0.5781,18.0541,0.3921,1.3533,9.7049,0.5463,-0.1234,-0.9652,-1.4522,-0.311,-1.1271,80,38.4,26.9,-11.63,306.24,-7.93,-2.31,2,61,12.925905,77.6864,0,2907.03340894625,0,80.57097,0,0 / 0,76916,2018-08-07 18:42:59:561
-0.6689,1.889,8.6927,-1.3012,1.2513,9.6391,-0.1936,0.7863,0.939,0.5239,0.3942,-0.0448,80,39.49,27.47,-10.44,307.09,-6.1,6.76,2,58.131,12.925905,77.6864,0,2907.03340894625,0,80.57097,0,0 / 0,77417,2018-08-07 18:43:00:062
-0.3456,1.4305,8.8184,-0.1577,1.8065,9.6375,-0.8868,-0.5896,-1.5164,0.64,-0.9065,-0.4954,80,20.95,29.18,-14.15,326.3,-10.62,0.94,2,53.735,12.925905,77.6864,0,2907.03340894625,0,80.57097,0,0 / 0,77917,2018-08-07 18:43:00:562
-0.5001,2.9005,7.8991,0.358,1.5439,9.6777,-0.6697,1.6806,-3.2974,-0.1472,-0.2386,-0.3399,80,8.57,36.54,-18.96,346.2,-9.06,-2.12,2,54.232,12.925905,77.6864,0,2907.03340894625,0,80.57097,0,0 / 0,78417,2018-08-07 18:43:01:062
-0.4941,0.6955,8.002,-0.1993,1.6821,9.6593,-0.1546,-1.0234,0.6616,0.2171,0.3313,-0.5646,80,6.4,32.86,-13.11,350.26,-9.51,0.2,2,52.186,12.925905,77.6864,0,2907.03340894625,0,80.57097,0,0 / 0,78917,2018-08-07 18:43:01:562
0.393,2.4396,6.0316,0.4956,1.8068,9.626,0.5699,1.2846,-1.6132,0.2491,0.0607,-0.1183,80,1.27,33.23,-14.55,357.06,-9.89,-3.06,2,50.163,12.925905,77.6864,0,2907.03340894625,0,80.57097,0,0 / 0,79417,2018-08-07 18:43:02:062
-0.1673,1.0474,8.1074,0.6916,1.7079,9.632,-0.1149,-0.3964,1.1639,0.0158,0.3707,-0.0128,80,3.76,33.51,-14.56,351.66,-10.05,-4.97,2,49.914,12.925905,77.6864,0,2907.03340894625,0,80.57097,0,0 / 0,79916,2018-08-07 18:43:02:561
1.9348,1.4927,8.518,0.6505,1.6424,9.6462,0.8769,-0.3289,-0.38,-0.1216,-0.2887,-0.065,80,0.82,35.9,-13.61,357.06,-9.64,-3.86,2,52.934,12.925905,77.6864,0,2907.03340894625,0,80.57097,0,0 / 0,80417,2018-08-07 18:43:03:062
0.3487,1.731,7.6944,0.245,1.9979,9.5979,-0.623,-0.6872,-1.5453,0.1905,-0.3398,0.6679,80,7.14,35.66,-18.97,349.62,-11.38,-0.44,2,53.272,12.925905,77.6864,0,2907.03340894625,0,80.57097,0,0 / 0,80916,2018-08-07 18:43:03:561
0.1548,1.9165,8.1792,0.923,2.0637,9.5425,-0.8943,-0.1677,3.577,0.1617,0.0267,-0.1503,80,1.7,37.2,-19.21,354.44,-11.84,-5.77,2,57.284,12.925905,77.6864,0,2907.03340894625,0,80.57097,0,0 / 0,81418,2018-08-07 18:43:04:063
0.9496,1.4472,11.1097,1.2893,2.157,9.4792,-0.6984,-0.8712,3.6208,0.1095,-0.3856,0.7659,80,4.08,35.17,-23.39,350.4,-12.84,-6.6,2,57.241,12.925905,77.6864,0,2907.03340894625,0,80.57097,0,0 / 0,81917,2018-08-07 18:43:04:562
2.3011,1.6735,15.1427,2.3564,2.2404,9.2519,-0.464,-0.1696,0.539,-0.7853,-0.7467,-0.1779,80,3.98,31.93,-25.22,345.91,-14.96,-12.43,2,55.12,12.925905,77.6864,0,2907.03340894625,0,80.57097,0,0 / 0,82416,2018-08-07 18:43:05:061
1.3159,2.3116,11.9776,1.226,2.654,9.3607,0.546,0.1502,1.7254,-0.013,0.6445,-0.1002,80,4.06,33.3,-19.29,349.34,-15.73,-8.95,2,50.395,12.925905,77.6864,0,2907.03340894625,0,80.57097,0,0 / 0,82917,2018-08-07 18:43:05:562
0.9209,2.7317,2.9766,-0.8344,4.2239,8.8109,1.5841,-2.8824,-3.1243,2.4542,0.2365,-0.2312,80,5.81,33.04,-21.67,353.78,-20.15,4.59,2,56.238,12.925905,77.6864,0,2907.03340894625,0,80.57097,0,0 / 0,83416,2018-08-07 18:43:06:061
0.7473,7.3501,5.6318,-0.1981,5.8537,7.8655,0.1252,0.8976,-0.8748,0.5878,-0.6317,-0.2216,80,-7.38,25.58,-31.47,12.09,-35.22,2.49,2,64.924,12.925905,77.6864,0,2907.03340894625,0,80.57097,0,0 / 0,83917,2018-08-07 18:43:06:562
0.8371,4.6734,5.8891,0.3714,5.2099,8.2999,-0.6397,-1.0855,-2.8242,-0.0311,0,0.147,80,-9.82,26.81,-32.03,12.81,-31.69,-1.64,2,65.376,12.925905,77.6864,0,2907.03340894625,0,80.57097,0,0 / 0,84416,2018-08-07 18:43:07:061
-0.372,4.2437,6.7427,0.3602,4.4266,8.7433,0.6663,-0.5445,-2.1929,0.0776,0.0789,-0.3622,80,-13.28,28.54,-27.84,16.99,-26.83,-2.36,2,63.094,12.925905,77.6864,0,2907.03340894625,0,80.57097,0,0 / 0,84917,2018-08-07 18:43:07:562
1.3147,3.6284,7.1964,0.1905,4.1129,8.9005,0.333,-0.6704,-0.796,-0.5999,0.5028,-0.0171,80,-11.99,29.69,-26.35,15.79,-26.18,-2.36,2,62.561,12.925905,77.6864,0,2907.03340894625,0,80.57097,0,0 / 0,85417,2018-08-07 18:43:08:062
0.6132,3.6379,7.3783,1.4585,3.6015,9.004,-0.3844,0.0505,-0.6204,-0.4956,0.1364,-0.3377,120,-19.02,30.27,-22.76,21.98,-21.55,-9.2,2,53.688,12.925905,77.6864,0,2907.03340894625,0,80.57097,0,0 / 0,85917,2018-08-07 18:43:08:562
0.448,2.6791,8.1708,0.8367,4.0436,8.8949,-1.1389,-0.6621,0.3185,0.4419,-0.1033,0.4474,120,-15.5,29.96,-23.37,19.33,-23.52,-4.78,2,47.884,12.925905,77.6864,0,2907.03340894625,0,80.57097,0,0 / 0,86417,2018-08-07 18:43:09:062
0.3032,2.3534,10.1915,0.5931,3.35,9.1976,-0.2819,-1.052,2.2052,-0.5201,0.8,-0.2397,120,-12.95,32.3,-22.16,16.98,-19.97,-3.69,2,46.656,12.925905,77.6864,0,2907.03340894625,0,80.57097,0,0 / 0,86916,2018-08-07 18:43:09:561
-2.6165,2.9292,11.294,-0.5035,3.7709,9.0387,0.1428,-0.0367,1.1412,0.346,0.1833,0.6167,80,-1.64,33.17,-25.16,4.95,-21.8,3.34,2,52.402,12.925905,77.6864,0,2907.03340894625,0,80.57097,0,0 / 0,87417,2018-08-07 18:43:10:062
1.3435,5.1619,12.4061,0.4983,5.5853,8.0453,0.8859,0.8052,1.7939,-0.2932,-0.3345,-0.2046,80,1.26,24.94,-32.42,356.57,-35.42,-2.38,2,50.211,12.925905,77.6864,0,2907.03340894625,0,80.57097,0,0 / 0,87916,2018-08-07 18:43:10:561
1.5338,6.7193,7.8607,-0.3569,6.3572,7.4585,-1.28,1.7552,2.2468,0.313,0.5348,0.5944,80,2.92,22.31,-36.02,358.18,-40.41,2.74,2,51.295,12.925905,77.6864,0,2907.03340894625,0,80.57097,0,0 / 0,88417,2018-08-07 18:43:11:062
-0.1326,8.8609,8.7789,0.4178,6.4525,7.373,-0.0362,2.181,3.0894,-0.1674,-0.1438,-0.1172,30,4.87,21.64,-33.39,349.84,-41.55,-3.2,2,56.12,12.925905,77.6864,0,2907.03340894625,0,80.57097,0,0 / 0,88917,2018-08-07 18:43:11:562
-1.6373,7.4746,11.8962,-0.4049,5.7924,7.9028,0.2061,1.2603,0.1891,-0.3421,0.2834,0.0053,80,5.15,24.56,-30.09,354.36,-36.88,2.36,2,56.565,12.925905,77.6864,0,2907.03340894625,0,80.57097,0,0 / 0,89416,2018-08-07 18:43:12:061
1.0645,6.8725,10.8523,0.2317,5.7889,7.9124,0.1175,0.5322,-0.0238,0.1415,-0.4208,-0.2163,80,3.75,25.5,-31.83,353.41,-35.8,-1.06,2,54.653,12.925905,77.6864,0,2907.03340894625,0,80.57097,0,0 / 0,89917,2018-08-07 18:43:12:562
-0.3612,6.6941,8.7693,-0.3591,5.4737,8.129,0.6057,0.2743,-2.6123,-0.0908,0.2908,-0.1417,30,1.48,26.07,-29.74,0.49,-33.93,2.53,2,51.364,12.925905,77.6864,0,2907.03340894625,0,80.57097,0,0 / 0,90416,2018-08-07 18:43:13:061
-0.1876,5.8681,5.6653,-0.1967,5.8236,7.8878,0.3309,-0.8573,-2.6476,0.2661,-0.148,-0.0384,30,3.94,25.47,-30.36,355.33,-35.74,1.72,2,53.644,12.925905,77.6864,0,2907.03340894625,0,80.57097,0,0 / 0,90917,2018-08-07 18:43:13:562
-0.5803,4.9009,5.3816,0.0579,5.6772,7.996,-0.3016,-0.9084,-2.5908,0.3013,0.0192,-0.1939,30,-2.6,25.51,-30.03,4.13,-35.37,-0.41,2,51.378,12.925905,77.6864,0,2907.03340894625,0,80.57097,0,0 / 0,91417,2018-08-07 18:43:14:062
0.8934,4.4831,5.6042,-0.6223,5.5922,8.0319,0.2975,-1.6964,-0.1016,0.1425,0.293,0.0063,30,0.09,26.37,-29.14,2.91,-34.58,3.8,2,49.631,12.925905,77.6864,0,2907.03340894625,0,80.57097,0,0 / 0,91917,2018-08-07 18:43:14:562
0.1595,4.5836,5.6904,0.0399,5.9232,7.8156,0.1484,-1.1975,-1.1735,-0.0396,0.4698,0.2098,30,-3.85,24.95,-30.91,5.68,-37.16,-0.29,2,51.614,12.925905,77.6864,0,2907.03340894625,0,80.57097,0,0 / 0,92417,2018-08-07 18:43:15:062
-0.8736,5.4108,5.6736,0.3717,6.5607,7.2793,-2.8346,-0.6839,-0.5784,0.0168,-0.0554,0.2279,30,-1.8,22.83,-30.37,0.89,-41.98,-2.71,2,50.686,12.925905,77.6864,0,2907.03340894625,0,80.57097,0,0 / 0,92917,2018-08-07 18:43:15:562
0.4265,5.5617,6.7439,1.1898,6.4291,7.309,1.9731,0.7701,3.336,-0.2857,0.1151,-0.456,80,-4.73,25.26,-31.2,359.09,-41.6,-10.31,2,51.314,12.925905,77.6864,0,2907.03340894625,0,80.57097,0,0 / 0,93417,2018-08-07 18:43:16:062
1.0514,7.0197,8.2582,0.2683,6.793,7.0678,0.764,1.7465,0.5772,-0.2559,-0.3366,0.1501,80,0.33,23.76,-32.73,359.18,-44.34,-1,2,70.004,12.925905,77.6864,0,2907.03340894625,0,80.57097,0,0 / 0,93916,2018-08-07 18:43:16:561
1.4344,8.0109,7.4478,0.7459,6.376,7.4136,-0.5464,1.5391,1.3596,-0.2932,-0.4975,0.0085,80,0.19,24.32,-31.24,356.02,-40.67,-4.93,2,61.139,12.925905,77.6864,0,2907.03340894625,0,80.57097,0,0 / 0,94416,2018-08-07 18:43:17:061
-1.8097,7.4495,10.079,-0.224,6.4389,7.3933,0.4222,0.9429,0.2316,-0.1962,0.2546,-0.1684,80,1.26,24.94,-32.42,359.96,-41.04,1.74,2,50.594,12.925905,77.6864,0,2907.03340894625,0,80.57097,0,0 / 0,94917,2018-08-07 18:43:17:562
-1.4099,7.3394,6.3213,-0.3118,6.7545,7.1028,-0.0594,-0.6199,-2.8645,0.0168,-0.3813,-0.1013,80,1.33,21.67,-33.37,1.19,-43.35,3.13,2,46.638,12.925905,77.6864,0,2907.03340894625,0,80.57097,0,0 / 0,95416,2018-08-07 18:43:18:061
0.1943,6.3637,5.3397,-0.2747,5.9464,7.7933,0.4432,-1.4179,-0.3047,0.3034,-0.1502,0.4292,80,0.35,24.66,-33.31,2.56,-36.44,3.08,2,49.46,12.925905,77.6864,0,2907.03340894625,0,80.57097,0,0 / 0,95916,2018-08-07 18:43:18:561
-0.9921,4.337,7.8847,-0.3104,5.415,8.1702,-0.2905,-1.45,-2.1153,-0.6042,-0.4879,-0.3676,80,-2.87,28.16,-28.2,6.34,-34.92,2.71,2,65.497,12.925905,77.6864,0,2907.03340894625,0,80.57097,0,0 / 0,96416,2018-08-07 18:43:19:061
-0.5515,3.7325,8.6185,0.8368,4.4965,8.6748,-0.3311,-0.1738,0.413,-0.3145,0.0991,-0.4027,80,-10.59,29.37,-25.78,12.5,-27.29,-5.51,2,64.641,12.925905,77.6864,0,2907.03340894625,0,80.57097,0,0 / 0,96917,2018-08-07 18:43:19:562
-0.3696,2.5139,8.3097,-0.1651,4.5697,8.6753,-1.7032,-1.0212,1.8585,-0.0652,-0.3792,0.1949,80,-5.84,28.77,-27.29,10.29,-28.09,1.99,2,62.758,12.925905,77.6864,0,2907.03340894625,0,80.57097,0,0 / 0,97417,2018-08-07 18:43:20:062
0.8072,3.6942,12.1272,0.4826,4.1003,8.8952,0.9578,-0.0551,4.1408,-0.2569,0.2504,-0.2056,80,-4.69,31.73,-26.65,4.49,-25.45,-3.82,2,60.253,12.925905,77.6864,0,2907.03340894625,0,80.57097,0,0 / 0,97916,2018-08-07 18:43:20:561
0.6875,5.0924,13.4081,-0.1922,5.8413,7.8748,-1.0579,2.5691,-0.8169,-1.14,-0.1278,-0.0757,80,-8.76,26.48,-30.86,13.97,-36.56,1.4,2,50.186,12.925905,77.6864,0,2907.03340894625,0,80.57097,0,0 / 0,98417,2018-08-07 18:43:21:062
0.3858,2.3786,10.4261,0.8241,3.2079,9.2304,-1.0292,0.207,0.5512,-0.6191,-0.588,-0.6339,80,-14.8,30.27,-24.55,19.43,-20.84,-4.15,2,48.552,12.925905,77.6864,0,2907.03340894625,0,80.57097,0,0 / 0,98917,2018-08-07 18:43:21:562
-0.7586,2.5761,11.3671,0.3135,2.8412,9.3808,-0.8871,-0.0188,0.5094,-0.0279,0.0544,0.2226,80,-16.67,32.35,-23.03,23.37,-16.94,-1.98,2,45.799,12.925905,77.6864,0,2907.03340894625,0,80.57097,0,0 / 0,99417,2018-08-07 18:43:22:062
1.0969,0.0706,17.8757,0.7511,2.0797,9.5541,0.4254,-0.8281,3.8883,-1.5715,-0.4687,-0.0853,80,-4.9,35.18,-20.09,5.47,-15.93,-3.53,2,47.798,12.925905,77.6864,0,2907.03340894625,0,80.57097,0,0 / 0,100119,2018-08-07 18:43:22:764
-0.4606,1.9404,13.3112,-0.6235,0.9114,9.7443,0.9222,1.0907,-0.1588,-0.7512,-0.2418,0.9257,30,11.9,34.34,-14.59,342.67,-5.33,3.66,2,48.227,12.925905,77.6864,0,2907.03340894625,0,80.57097,0,0 / 0,100619,2018-08-07 18:43:23:264
-0.8736,1.0845,10.1017,-0.2879,-0.02,9.8024,-0.244,1.9944,-2.1716,-1.188,0.3356,0.8372,80,20.65,30.32,-11.17,325.63,-2.32,0.93,2,50.109,12.925905,77.6864,0,2907.03340894625,0,80.57097,0,0 / 0,101118,2018-08-07 18:43:23:763
-0.178,-1.7478,9.0626,-1.4532,1.02,9.6446,0.8031,-1.5667,-1.3146,-0.1589,0.0991,0.6956,80,30.59,24.51,-8.09,311.61,-5.97,8.57,2,46.345,12.925905,77.6864,0,2907.03340894625,0,80.57097,0,0 / 0,101619,2018-08-07 18:43:24:264
1.0681,-2.1488,10.6225,-2.0905,-0.257,9.5778,2.5657,-0.5184,-1.6888,0.2885,-1.0642,-0.7777,80,29.63,26.17,-1.55,312.09,1.66,14.97,2,47.901,12.925905,77.6864,0,2907.03340894625,0,80.57097,0,0 / 0,102119,2018-08-07 18:43:24:764
-1.3763,0.0826,8.3707,-0.4903,-0.4774,9.7827,-0.2459,-0.2161,-0.82,-0.5872,0.2344,-0.9524,80,9.08,38.68,-7.11,347.07,1.22,0.7,2,52.076,12.925905,77.6864,0,2907.03340894625,0,80.57097,0,0 / 0,102619,2018-08-07 18:43:25:264
-0.9274,1.8124,7.8907,-0.0592,-0.0705,9.8062,-0.1308,0.0681,0.0354,0.3226,-0.0895,-0.5582,80,3.75,38.48,-9.45,354.06,0.41,0.35,2,52.723,12.925905,77.6864,0,2907.03340894625,0,80.57097,0,0 / 0,103119,2018-08-07 18:43:25:764
-0.4247,4.2233,7.686,-0.1533,4.6813,8.6158,0.8148,-1.8956,0.0759,1.2888,0.2514,-0.7202,30,-4.4,29.32,-25.52,5.89,-25.78,-0.3,2,53.088,12.925905,77.6864,0,2907.03340894625,0,80.57097,0,0 / 0,103620,2018-08-07 18:43:26:265
-1.7032,8.564,2.5732,-0.8882,9.0069,3.7759,-0.6168,0.2034,1.8328,0.8275,-0.2173,0.083,10,0.13,5.7,-39.56,13.51,-65,13.13,2,50.719,12.925905,77.6864,0,2907.03340894625,0,80.57097,0,0 / 0,104119,2018-08-07 18:43:26:764
1.3291,7.1335,9.9521,0.4833,7.3707,6.4505,0.5393,0.6882,1.4789,-1.629,-0.1821,0.474,10,-3.96,16.4,-36.09,5.3,-55.14,-0.64,2,53.793,12.925905,77.6864,0,2907.03340894625,0,80.57097,0,0 / 0,104619,2018-08-07 18:43:27:264
-0.1146,2.3882,12.8862,0.101,1.7478,9.6491,0.2757,0.6836,1.4404,-0.6063,0.4261,0.1576,30,3.69,37.68,-14.19,354.06,-10.27,-0.6,2,55.669,12.925905,77.6864,0,2907.03340894625,0,80.57097,0,0 / 0,105119,2018-08-07 18:43:27:764
0.314,1.5562,8.4569,0.138,1.0351,9.7509,0.3591,0.3111,-0.8593,-0.0247,-0.2737,0.1193,30,10.69,35.23,-14.27,343.09,-6.08,-0.13,2,52.353,12.925905,77.6864,0,2907.03340894625,0,80.57097,0,0 / 0,105619,2018-08-07 18:43:28:264
0.9113,0.4369,8.0559,0.3206,0.2744,9.7976,-0.1283,0.4622,-2.4315,-0.2601,-0.4037,0.066,30,3.04,39.15,-12.98,355.03,-1.6,-1.87,2,47.193,12.925905,77.6864,0,2907.03340894625,0,80.57097,0,0 / 0,106120,2018-08-07 18:43:28:765
0.0303,0.322,8.9669,0.0097,-0.6658,9.784,0.0251,0.3155,-0.6392,-0.3741,0.1907,0.0223,80,2.4,39.93,-7.05,357.09,3.89,-0.06,2,47.473,12.925905,77.6864,0,2907.03340894625,0,80.57097,0,0 / 0,106619,2018-08-07 18:43:29:264
1.3638,-1.3276,10.3411,0.0675,-0.1764,9.8048,0.1335,-0.497,-1.1874,-0.6106,2.0262,0.3707,80,-5.4,40.06,-10.55,5.21,-1.22,-6.77,2,45.197,12.925905,77.6864,0,2907.03340894625,0,80.57097,0,0 / 0,107119,2018-08-07 18:43:29:764
-0.3875,1.6531,9.5319,-0.9014,1.9235,9.5738,1.8653,0.2069,0.2598,-0.5222,1.8973,0.54,80,3.18,38.91,-16.23,356.47,-12.4,1.55,2,45.186,12.925905,77.6864,0,2907.03340894625,0,80.57097,0,0 / 0,107619,2018-08-07 18:43:30:264
-0.2104,-0.613,12.6707,-0.6858,0.8055,9.7494,-0.2735,-1.1424,3.2644,-0.6649,-0.5284,-0.3814,80,-0.31,39.8,-14.42,1.74,-6.42,5.14,2,45.419,12.925905,77.6864,0,2907.03340894625,0,80.57097,0,0 / 0,108119,2018-08-07 18:43:30:764
-0.5791,0.1268,16.0777,-0.2394,1.1012,9.7417,-1.0114,-0.07,2.1603,-0.5648,-0.2162,0.2013,80,-3.88,38.98,-16.78,6.2,-6.45,1.41,2,46.106,12.925905,77.6864,0,2907.03340894625,0,80.57097,0,0 / 0,108619,2018-08-07 18:43:31:264
1.444,1.476,9.745,0.5261,1.3563,9.6981,-0.1529,-0.7654,2.3314,0.1606,-0.5156,-0.3622,80,-3.77,37.22,-18.29,4.89,-7.66,-2.08,2,47.378,12.925905,77.6864,0,2907.03340894625,0,80.57097,0,0 / 0,109119,2018-08-07 18:43:31:764
-0.2427,0.9456,13.857,-0.0339,1.1758,9.7359,-0.303,0.2454,2.3752,-0.1888,0.0309,0.36,120,-5.56,36.34,-18.29,9.07,-7.31,0.2,2,49.387,12.925905,77.6864,0,2907.03340894625,0,80.57097,0,0 / 0,109618,2018-08-07 18:43:32:263
-0.4163,1.6795,11.2557,-0.2327,1.6606,9.6622,0.2803,0.3727,-1.8943,0.1521,0.0842,-0.2088,120,0.81,36.58,-17.73,359.06,-9.35,1.13,2,49.865,12.925905,77.6864,0,2907.03340894625,0,80.57097,0,0 / 0,110118,2018-08-07 18:43:32:763
-0.7479,2.2984,8.7957,-0.3707,1.3294,9.7091,-0.0477,0.5934,-2.829,0.2587,-0.1353,-0.0139,120,-2.38,36.01,-17.73,4.03,-7.79,2.19,2,50.526,12.925905,77.6864,0,2907.03340894625,0,80.57097,0,0 / 0,110619,2018-08-07 18:43:33:264
-0.0954,1.1133,8.1947,-0.1556,1.3084,9.7177,-0.3273,-0.6877,-0.4418,0.5825,-0.1853,0.1821,120,2.75,35.92,-15.69,356.01,-6.41,1.35,2,44.123,12.925905,77.6864,0,2907.03340894625,0,80.57097,0,0 / 0,111119,2018-08-07 18:43:33:764
-0.5479,1.8207,7.2179,-0.5074,1.1107,9.7303,0.9337,0.125,-1.65,0.036,0.3441,-0.015,80,-0.03,36.8,-13.89,0.84,-6.39,2.29,2,44.564,12.925905,77.6864,0,2907.03340894625,0,80.57097,0,0 / 0,111619,2018-08-07 18:43:34:264
-0.3217,1.1731,9.1045,-0.071,1.0297,9.7522,-0.2936,-0.6211,-1.068,-0.4423,-0.0575,-0.2355,120,2.47,37.66,-12.7,357.24,-7.08,0.46,2,51.904,12.925905,77.6864,0,2907.03340894625,0,80.57097,0,0 / 0,112119,2018-08-07 18:43:34:764
1.0514,0.7793,9.1728,0.438,1.2576,9.7158,0.5027,-0.4816,-0.9774,-0.1429,-0.3664,-0.1875,120,-3.75,37.17,-15.93,5.18,-7.91,-1.71,2,48.567,12.925905,77.6864,0,2907.03340894625,0,80.57097,0,0 / 0,112619,2018-08-07 18:43:35:264
1.286,1.458,7.7075,0.5783,1.532,9.669,0.0369,-0.6601,-0.0736,0.6283,0.6456,0.6615,120,-1.36,35.13,-18.93,359.79,-8.99,-3.42,2,45.874,12.925905,77.6864,0,2907.03340894625,0,80.57097,0,0 / 0,113119,2018-08-07 18:43:35:764
0.7796,1.2976,10.5542,1.0536,1.4135,9.6469,0.2973,0.307,2.4872,-0.128,-0.098,-0.1694,120,-6.08,35.99,-15.64,6.41,-8.54,-6.07,2,45.569,12.925905,77.6864,0,2907.03340894625,0,80.57097,0,0 / 0,113619,2018-08-07 18:43:36:264
1.6176,0.1855,14.6711,0.9678,1.3299,9.6677,0.1618,0.6349,2.4252,-0.6404,-0.6711,0.3089,120,-5.51,37.17,-15.32,7.17,-9.26,-4.12,2,43.825,12.925905,77.6864,0,2907.03340894625,0,80.57097,0,0 / 0,114119,2018-08-07 18:43:36:764
1.7481,1.5861,9.4649,1.0798,1.9611,9.5477,-0.0719,-0.9962,1.6981,0.3385,0.2589,-0.3132,120,-5.56,36.02,-17.12,5.65,-10.82,-7.18,2,44.983,12.925905,77.6864,0,2907.03340894625,0,80.57097,0,0 / 0,114619,2018-08-07 18:43:37:264
-0.1194,1.7357,12.9784,0.5888,1.3335,9.6977,-0.6248,0.8277,1.6668,0.019,0.1279,0.0703,120,-10.65,36.6,-14.42,14.69,-7.82,-3.47,2,44.986,12.925905,77.6864,0,2907.03340894625,0,80.57097,0,0 / 0,115118,2018-08-07 18:43:37:763
0.873,1.3898,10.6703,0.8924,1.4124,9.6633,-0.0995,0.418,-1.9082,0.2832,-0.3441,-0.1865,120,-4.81,37.49,-16.5,5.33,-7.54,-4.54,2,44.558,12.925905,77.6864,0,2907.03340894625,0,80.57097,0,0 / 0,115619,2018-08-07 18:43:38:264
-0.6976,2.2002,9.7306,0.8754,1.2238,9.6905,-1.3314,0.9819,-1.0172,0.2821,0.1066,-0.0586,120,-11,36.59,-13.83,14.02,-6.41,-5.53,2,45.66,12.925905,77.6864,0,2907.03340894625,0,80.57097,0,0 / 0,116119,2018-08-07 18:43:38:764
0.4181,1.3359,6.2542,0.7691,1.3423,9.6839,-0.3776,-0.6348,-2.4829,0.3439,0.0171,0.2087,120,-6.57,37.48,-15.31,8.53,-7.16,-4.53,2,53.464,12.925905,77.6864,0,2907.03340894625,0,80.57097,0,0 / 0,116619,2018-08-07 18:43:39:264
0.2469,2.0649,4.9686,1.5078,1.2631,9.6074,-0.5947,0.4825,-4.0504,0.4568,0.3068,-0.0693,120,-13.63,36.57,-11.75,16.74,-4.98,-10.96,2,48,12.925905,77.6864,0,2907.03340894625,0,80.57097,0,0 / 0,117119,2018-08-07 18:43:39:764
1.7301,0.8834,7.5615,1.3092,1.184,9.6465,0.4523,-0.4668,-1.4749,-0.1962,0.4485,-0.1098,120,-10.08,37.43,-11.16,12.11,-7.37,-8.72,2,46.908,12.925905,77.6864,0,2907.03340894625,0,80.57097,0,0 / 0,117618,2018-08-07 18:43:40:263
1.9061,1.6352,8.6688,1.3782,1.1827,9.637,0.7455,0.1729,-1.4631,-0.0801,-0.311,-0.1087,120,-15.8,35.74,-14.11,20.47,-7.04,-7.38,2,46.656,12.925905,77.6864,0,2907.03340894625,0,80.57097,0,0 / 0,118119,2018-08-07 18:43:40:764
1.851,0.9205,8.6257,0.8031,1.409,9.6716,0.8213,-1.2783,4.476,0.5569,0.4975,0.963,80,-8.31,37.44,-12.35,10.29,-8.26,-4.75,2,51.853,12.925905,77.6864,0,2907.03340894625,0,80.57097,0,0 / 0,118618,2018-08-07 18:43:41:263
0.8778,0.8331,10.6859,1.6048,1.2717,9.5905,-0.5742,-0.7958,5.209,0.2437,0.326,0.0564,80,-11.69,37.53,-15.58,13.02,-11.02,-8.82,2,53.887,12.925905,77.6864,0,2907.03340894625,0,80.57097,0,0 / 0,119118,2018-08-07 18:43:41:763
1.0358,2.2517,12.1919,0.8146,1.5315,9.652,-0.2886,0.609,1.5834,-0.2633,0.2269,0.4548,80,-10.98,37.2,-14.41,14.13,-8.98,-4.82,2,46.558,12.925905,77.6864,0,2907.03340894625,0,80.57097,0,0 / 0,119619,2018-08-07 18:43:42:264
2.0941,1.4448,10.3292,1.2559,1.9894,9.5202,-0.3007,-0.2472,-0.4953,0.2693,-0.4133,-0.2845,80,-9.09,36.67,-18.27,9.3,-11.7,-7.52,2,41.23,12.925905,77.6864,0,2907.03340894625,0,80.57097,0,0 / 0,120119,2018-08-07 18:43:42:764
0.4648,1.367,12.642,0.9941,1.405,9.6544,-0.7172,0.0455,2.7222,0.1575,0.1864,0.3195,80,-10.31,36.65,-16.78,11.83,-8.24,-5.88,2,44.649,12.925905,77.6864,0,2907.03340894625,0,80.57097,0,0 / 0,120619,2018-08-07 18:43:43:264
1.3291,1.5789,9.1297,1.2542,1.6174,9.5907,0.1196,0.0364,-1.8265,0.1063,-0.2727,-0.3005,80,-5.73,36.93,-17.99,5.22,-9.49,-7.45,2,47.479,12.925905,77.6864,0,2907.03340894625,0,80.57097,0,0 / 0,121119,2018-08-07 18:43:43:764
-0.0392,1.4484,10.6847,1.2495,1.2527,9.6457,-0.7155,1.0344,-2.9389,-0.0343,0.0085,-0.2653,80,-9.66,34.52,-15.05,12.21,-7.2,-7.51,2,46.723,12.925905,77.6864,0,2907.03340894625,0,80.57097,0,0 / 0,121618,2018-08-07 18:43:44:263
1.7361,1.8076,7.4394,1.271,1.8354,9.5492,0.3045,-0.2688,-3.3699,0.0627,-0.0245,-0.2056,80,-5.6,35.16,-18.91,5.2,-10.55,-7.53,2,46.97,12.925905,77.6864,0,2907.03340894625,0,80.57097,0,0 / 0,122120,2018-08-07 18:43:44:765
-0.269,1.9476,6.866,1.5934,1.5309,9.5545,-1.734,0.4236,-3.0154,0.1127,-0.0085,-0.3207,80,-11.2,36.04,-15.9,11.7,-7.93,-10.54,2,47.139,12.925905,77.6864,0,2907.03340894625,0,80.57097,0,0 / 0,122618,2018-08-07 18:43:45:263
1.8762,1.8566,8.4234,1.6373,1.789,9.5021,0.2406,-0.3919,-0.6437,-0.0471,0.3036,0.082,80,-7.36,34.84,-17.13,6.08,-10.51,-9.78,2,47.161,12.925905,77.6864,0,2907.03340894625,0,80.57097,0,0 / 0,123119,2018-08-07 18:43:45:764
2.0378,2.9508,7.2323,2.2615,2.2336,9.2772,0.559,-0.2919,-0.4439,-0.0066,0.1342,0.1928,80,-15.39,31.91,-16.84,16.36,-13.3,-13.84,2,48.118,12.925905,77.6864,0,2907.03340894625,0,80.57097,0,0 / 0,123619,2018-08-07 18:43:46:264
2.1024,2.0745,9.1345,1.4956,2.8428,9.2656,-0.1301,-0.867,0.6089,0.0967,0.1225,0.6221,80,-8.31,32.78,-18.05,7.79,-16.95,-9.03,2,42.572,12.925905,77.6864,0,2907.03340894625,0,80.57097,0,0 / 0,124119,2018-08-07 18:43:46:764
4.742,3.456,7.5172,2.3448,2.5613,9.1713,0.6222,-0.1902,5.2258,0.3268,0.2099,0.5869,80,-5.6,35.16,-18.91,1.55,-14.91,-14.5,2,41.156,12.925905,77.6864,0,2907.03340894625,0,80.57097,0,0 / 0,124619,2018-08-07 18:43:47:264
2.2712,1.3383,12.5761,2.5075,2.2539,9.2088,0.6558,0.5952,4.2077,-0.1525,-0.931,0.5113,80,-2.88,36.89,-16.82,357.75,-13.29,-15.23,2,45.903,12.925905,77.6864,0,2907.03340894625,0,80.57097,0,0 / 0,125119,2018-08-07 18:43:47:764
4.9863,1.3096,14.7932,2.9869,1.5924,9.204,2.2611,0.5612,3.0843,-1.6599,-0.2237,-0.6126,80,-1.47,36.86,-16.24,354.29,-12.49,-17.83,2,50.202,12.925905,77.6864,0,2907.03340894625,0,80.57097,0,0 / 0,125619,2018-08-07 18:43:48:264
1.5182,1.2832,11.7621,2.369,1.7578,9.3525,-0.6023,-0.054,2.3401,0.0733,0.1151,0.0266,120,-7.63,37.17,-14.13,6.15,-10.22,-14.58,2,51.765,12.925905,77.6864,0,2907.03340894625,0,80.57097,0,0 / 0,126119,2018-08-07 18:43:48:764
2.5932,2.3618,9.5415,2.7108,2.4973,9.0877,-0.4647,-0.6465,-1.4933,0.4025,-0.6871,-0.2163,120,-2.08,34.84,-19.52,355.15,-13.77,-15.12,2,50.096,12.925905,77.6864,0,2907.03340894625,0,80.57097,0,0 / 0,126619,2018-08-07 18:43:49:264
1.7457,2.7569,9.5822,2.1172,2.4279,9.2625,-0.6965,0.3856,-0.6931,0.0424,0.0512,-0.0661,80,-2.08,34.84,-19.52,356.4,-13.81,-12.68,2,49.731,12.925905,77.6864,0,2907.03340894625,0,80.57097,0,0 / 0,127119,2018-08-07 18:43:49:764
1.547,2.0638,7.5579,1.8742,1.9138,9.4337,-1.0283,-0.5984,-2.7875,0.3183,-0.2652,-0.0981,80,0.22,34.8,-18.06,354.69,-11.25,-11.24,2,48.135,12.925905,77.6864,0,2907.03340894625,0,80.57097,0,0 / 0,127619,2018-08-07 18:43:50:264
1.5063,2.8383,5.3492,2.1514,1.8967,9.3779,-0.1725,0.5881,-3.4358,0.1788,0.4517,-0.1343,80,-5.02,35.98,-15.64,1.5,-10.57,-13.92,2,43.948,12.925905,77.6864,0,2907.03340894625,0,80.57097,0,0 / 0,128119,2018-08-07 18:43:50:764
1.9253,1.0366,7.3029,2.3205,1.575,9.3971,0.753,-0.9697,0.0752,0.1266,0.4112,-0.0427,80,-4.66,36.25,-14.46,2.26,-9.24,-13.87,2,41.398,12.925905,77.6864,0,2907.03340894625,0,80.57097,0,0 / 0,128619,2018-08-07 18:43:51:264
3.2325,2.023,7.7303,2.7078,1.5767,9.2926,0.5331,-0.1259,-0.4021,0.2278,0,0.3707,80,-9.06,36.89,-14.72,6.56,-9,-16.03,2,45.675,12.925905,77.6864,0,2907.03340894625,0,80.57097,0,0 / 0,129119,2018-08-07 18:43:51:764
3.8789,-0.0036,10.6895,2.3608,1.1668,9.4465,1.1749,-0.5732,3.2899,-0.095,0.0639,0.1448,80,-7.41,38.32,-12.04,5.74,-7.87,-13.65,2,41.951,12.925905,77.6864,0,2907.03340894625,0,80.57097,0,0 / 0,129618,2018-08-07 18:43:52:263
1.3064,1.1611,14.859,2.9506,1.5247,9.2271,-1.3524,0.1632,4.9178,-0.5307,-0.359,-0.2419,80,-17.2,35.4,-11.75,18.71,-9.97,-17.35,2,41.394,12.925905,77.6864,0,2907.03340894625,0,80.57097,0,0 / 0,130119,2018-08-07 18:43:52:764
4.8103,1.1168,20.7559,1.8291,1.2332,9.5553,2.2221,0.717,7.593,-1.1571,-0.0916,0.2556,80,-12.07,35.99,-13.24,13.3,-11.69,-11.91,2,44.462,12.925905,77.6864,0,2907.03340894625,0,80.57097,0,0 / 0,130619,2018-08-07 18:43:53:264
2.6004,1.5729,6.1812,1.8084,2.0509,9.4177,1.4263,-1.1151,-2.3309,0.6166,-0.2002,0.0159,80,-8.02,36.62,-16.5,6.63,-12.07,-10.87,2,42.978,12.925905,77.6864,0,2907.03340894625,0,80.57097,0,0 / 0,130835,2018-08-07 18:43:53:480
2.841,2.8969,8.0343,2.3355,1.2953,9.436,-0.0836,1.2463,-0.9755,-0.4231,-0.4176,0.0468,80,-19.7,34.84,-12.33,24.43,-8.41,-12.96,2,46.406,12.925905,77.6864,0,2907.03340894625,0,80.57097,0,0 / 0,131335,2018-08-07 18:43:53:980
2.1515,1.0881,7.0491,3.1905,1.399,9.167,-2.0454,-0.9264,-0.6835,0.2171,-0.4793,0.6956,120,-12.2,37.17,-12.33,11.22,-8.31,-18.04,2,52.491,12.925905,77.6864,0,2907.03340894625,0,80.57097,0,0 / 0,131835,2018-08-07 18:43:54:480
2.1946,1.2677,9.6612,2.8145,1.2108,9.3157,0.2355,-0.6759,1.8968,0.0648,0.8171,0.2247,120,-12.88,38.37,-12.31,12.08,-7.2,-18.62,2,47.508,12.925905,77.6864,0,2907.03340894625,0,80.57097,0,0 / 0,132335,2018-08-07 18:43:54:980
3.0074,0.3088,9.6133,3.078,0.6535,9.2881,-0.5003,-0.476,1.3096,0.1362,0.0331,0.8149,120,-3.66,40.12,-14.1,359.15,-3.82,-18.33,2,49.206,12.925905,77.6864,0,2907.03340894625,0,80.57097,0,0 / 0,132835,2018-08-07 18:43:55:480
5.4423,0.3926,8.2354,2.6443,1.8416,9.2621,2.0873,-1.7072,7.4142,1.0768,0.9481,0.49,120,4.96,34.55,-22.52,342.69,-9.13,-17.76,2,49.528,12.925905,77.6864,0,2907.03340894625,0,80.57097,0,0 / 0,133335,2018-08-07 18:43:55:980
3.2074,2.7042,13.7337,2.1294,2.6256,9.2056,1.3984,0.3775,4.143,-0.1707,-0.7126,0.4729,80,10.48,31.32,-27.34,337.71,-16.21,-11.1,2,46.831,12.925905,77.6864,0,2907.03340894625,0,80.57097,0,0 / 0,133835,2018-08-07 18:43:56:480
7.0812,2.8203,9.3583,3.6999,2.3416,8.7749,2.6347,0.995,0.3745,-0.6553,0.2418,0.0202,80,12.17,27.98,-25.04,326.66,-15.13,-23.31,2,44.465,12.925905,77.6864,0,2907.03340894625,0,80.57097,0,0 / 0,134335,2018-08-07 18:43:56:980
0.8467,1.895,5.3792,3.343,2.2778,8.9334,-1.4123,-0.3986,-2.694,-0.1941,0.3803,-0.6935,120,9.95,30.06,-23.52,331.46,-13.24,-21.8,2,41.33,12.925905,77.6864,0,2907.03340894625,0,80.57097,0,0 / 0,134835,2018-08-07 18:43:57:480
3.6599,4.2592,9.5786,3.1806,3.48,8.5991,-0.1908,0.0909,-4.109,0.2704,-0.4634,-0.9204,80,4.1,29.85,-25.55,340.57,-20.78,-20.3,2,41.362,12.925905,77.6864,0,2907.03340894625,0,80.57097,0,0 / 0,135335,2018-08-07 18:43:57:980
0.9616,4.5741,10.4752,1.5161,3.8524,8.8899,-0.1087,0.7384,-0.148,-0.2473,0.1204,-0.4783,80,-2.62,29.6,-25.52,357.33,-23.42,-10.46,2,47.215,12.925905,77.6864,0,2907.03340894625,0,80.57097,0,0 / 0,135835,2018-08-07 18:43:58:480
0.9987,2.5522,6.8791,1.412,3.9999,8.8418,-0.9117,-0.8212,-2.4959,-0.5531,-0.0149,-0.0043,80,-2.29,29.31,-26.12,356.72,-24.07,-9.07,2,48.953,12.925905,77.6864,0,2907.03340894625,0,80.57097,0,0 / 0,136334,2018-08-07 18:43:58:979
1.5386,4.9224,5.7826,1.5319,4.6346,8.5055,-0.7687,-1.6013,-2.6071,0.5633,0.2301,0.2727,80,-1.46,27.22,-26.46,354.13,-27.07,-10.33,2,41.375,12.925905,77.6864,0,2907.03340894625,0,80.57097,0,0 / 0,136835,2018-08-07 18:43:59:480
0.867,3.8666,5.4187,0.6265,5.0169,8.4029,0.5315,-1.9864,-0.3214,0.3492,0.4464,0.0276,80,4.12,25.76,-30.06,350.58,-30.77,-4.26,2,46.43,12.925905,77.6864,0,2907.03340894625,0,80.57097,0,0 / 0,137335,2018-08-07 18:43:59:980
0.7581,3.9145,5.2451,1.9379,5.228,8.0674,-0.1768,-1.1557,-2.2448,0.1681,0.4719,-0.359,80,0.27,26.03,-27.08,348.99,-31.63,-14.96,2,57.293,12.925905,77.6864,0,2907.03340894625,0,80.57097,0,0 / 0,137835,2018-08-07 18:44:00:480
2.9632,3.9468,8.233,2.2369,5.348,7.9098,-1.3169,-0.0488,-1.0759,-0.6159,0.2024,-0.0128,80,3.17,23.39,-30.39,341.98,-34.76,-16.36,2,55.539,12.925905,77.6864,0,2907.03340894625,0,80.57097,0,0 / 0,138335,2018-08-07 18:44:00:980
3.8861,5.5054,6.198,2.5773,5.856,7.4321,-0.2625,-0.0008,-0.4574,0.5686,0.4261,0.2375,80,1.74,22.8,-30.4,341.48,-36.67,-19.13,2,58.375,12.925905,77.6864,0,2907.03340894625,0,80.57097,0,0 / 0,138835,2018-08-07 18:44:01:480
-0.8113,4.3466,10.3172,1.1667,5.2791,8.1817,1.3008,0.063,2.9637,-0.633,0.5891,-0.081,80,6.92,24.84,-30.09,341.99,-34.12,-9.61,2,58.999,12.925905,77.6864,0,2907.03340894625,0,80.57097,0,0 / 0,139335,2018-08-07 18:44:01:980
1.9324,3.0166,16.1591,1.1801,3.994,8.8784,0.4623,0.9471,2.8548,-1.3382,-0.6327,-0.5103,80,-1.62,33.76,-25.16,358.62,-26.92,-6.86,2,45.898,12.925905,77.6864,0,2907.03340894625,0,80.57097,0,0 / 0,139834,2018-08-07 18:44:02:479
-0.2451,5.6287,10.1783,0.3569,4.0041,8.9448,-0.2453,0.4769,1.1978,0.2619,0.2397,0.2588,80,0.98,32.28,-26.67,356.83,-23.54,-2.59,2,47.47,12.925905,77.6864,0,2907.03340894625,0,80.57097,0,0 / 0,140335,2018-08-07 18:44:02:980
0.1344,4.2496,9.5654,1.1169,4.0101,8.8793,-0.694,-0.1479,-1.2028,0.2491,-0.2397,-0.4315,80,-0.26,31.97,-25.79,355.33,-24.14,-7.17,2,55.592,12.925905,77.6864,0,2907.03340894625,0,80.57097,0,0 / 0,140835,2018-08-07 18:44:03:480
-0.2774,4.264,10.5135,0.4358,4.0245,8.9322,0.0052,0.5988,-3.5978,-0.1195,0.244,-0.3026,80,-2.57,31.7,-26.07,1.93,-24.25,-3.64,2,50.406,12.925905,77.6864,0,2907.03340894625,0,80.57097,0,0 / 0,141335,2018-08-07 18:44:03:980
1.3638,4.2185,5.3864,0.8742,4.9194,8.4384,-0.037,-1.7696,-3.0055,-0.1707,-0.1491,0.0617,80,1.37,27.85,-28.82,354.11,-30.11,-5.91,2,51.284,12.925905,77.6864,0,2907.03340894625,0,80.57097,0,0 / 0,141835,2018-08-07 18:44:04:480
-0.7598,3.7074,5.3851,0.4772,4.0813,8.9043,-0.4585,-0.5669,-3.26,0.0552,0.3015,-0.3069,80,-3.31,30.81,-26.08,1.67,-24.34,-4.09,2,50.703,12.925905,77.6864,0,2907.03340894625,0,80.57097,0,0 / 0,142335,2018-08-07 18:44:04:980
0.0183,3.0023,6.7594,0.5376,4.1549,8.8667,0.119,-1.3326,-1.4882,-0.2708,0.6541,0,80,0.33,28.44,-28.22,356.06,-26.79,-5.3,2,44.629,12.925905,77.6864,0,2907.03340894625,0,80.57097,0,0 / 0,142835,2018-08-07 18:44:05:480
1.3411,3.0921,6.2842,0.6943,4.2196,8.8252,1.3297,-0.6826,-0.8588,0.3183,-0.2418,0.2322,120,-0.03,28.12,-27.04,356.71,-25.49,-4.5,2,44.811,12.925905,77.6864,0,2907.03340894625,0,80.57097,0,0 / 0,143335,2018-08-07 18:44:05:980
1.1352,3.6296,8.1995,0.1976,4.9419,8.4681,-0.4862,-0.4706,-0.9291,0.0776,-0.0916,0.4676,80,5.37,26.35,-30.35,351.96,-30.09,-0.57,2,52.173,12.925905,77.6864,0,2907.03340894625,0,80.57097,0,0 / 0,143835,2018-08-07 18:44:06:480
1.5338,4.2173,7.7147,0.498,5.0916,8.3665,0.3591,-0.6506,4.6932,0.3311,0.3995,0.3302,80,1.68,26.36,-29.44,353.96,-30.88,-3.82,2,50.19,12.925905,77.6864,0,2907.03340894625,0,80.57097,0,0 / 0,144335,2018-08-07 18:44:06:980
-1.4853,5.4096,7.8248,0.3664,5.6285,8.0222,-0.2174,-0.4369,4.3291,0.3194,0.6573,0.2727,80,3.77,25.43,-28.29,352.23,-35.08,-2,2,56.868,12.925905,77.6864,0,2907.03340894625,0,80.57097,0,0 / 0,144835,2018-08-07 18:44:07:480
2.7525,5.181,15.2457,0.6417,5.6982,7.9554,0.5212,2.6746,0.5087,-1.2604,-0.605,-0.2568,80,2.32,24.92,-31.84,353.29,-35.52,-4.61,2,54.269,12.925905,77.6864,0,2907.03340894625,0,80.57097,0,0 / 0,145335,2018-08-07 18:44:07:980
1.5602,7.0197,10.8164,-0.2484,6.0538,7.7111,-0.7707,2.4303,1.3674,-0.1355,0.0331,0.7648,80,5.99,23.4,-32.18,353.56,-38.24,3.04,2,62.593,12.925905,77.6864,0,2907.03340894625,0,80.57097,0,0 / 0,145835,2018-08-07 18:44:08:480
0.5785,5.9136,9.6444,0.9917,4.714,8.542,-0.508,0.7705,1.5038,-0.388,-0.2013,-0.4688,80,-0.35,29,-26.43,355.47,-28.73,-6.62,2,58.167,12.925905,77.6864,0,2907.03340894625,0,80.57097,0,0 / 0,146335,2018-08-07 18:44:08:980
0.4014,4.5765,11.0857,0.6406,3.9311,8.9614,-0.4365,0.9115,1.4067,-0.2399,-0.0905,-0.2408,80,-2.03,31.96,-24.6,0.24,-24.1,-4.2,2,53.271,12.925905,77.6864,0,2907.03340894625,0,80.57097,0,0 / 0,146835,2018-08-07 18:44:09:480
0.2362,3.5697,11.0893,1.0887,4.0678,8.8565,-0.6578,0.2466,-3.831,-0.6106,-0.7552,-0.5998,80,-0.29,30.78,-25.81,356.33,-25.89,-5.55,2,53.8,12.925905,77.6864,0,2907.03340894625,0,80.57097,0,0 / 0,147335,2018-08-07 18:44:09:980
0.0733,4.2149,8.8544,0.4382,3.6111,9.1071,-0.246,0.0975,-1.1428,0.3098,0.4964,0.0053,80,-0.77,32.25,-24.3,359.07,-20.86,-3.88,2,47.682,12.925905,77.6864,0,2907.03340894625,0,80.57097,0,0 / 0,147835,2018-08-07 18:44:10:480
0.3499,2.9795,7.2562,0.576,3.2286,9.242,1.2953,-0.1292,-2.2101,-0.422,-0.1342,-0.2387,80,3.34,32.72,-19.89,353.73,-20.08,-3.32,2,43.709,12.925905,77.6864,0,2907.03340894625,0,80.57097,0,0 / 0,148335,2018-08-07 18:44:10:980
0.4181,2.964,6.198,-0.0063,2.4209,9.5031,0.2603,0.2405,-2.9857,0.4717,0.1066,-0.0395,80,2,35.44,-21.01,357.09,-14.29,0.04,2,44.978,12.925905,77.6864,0,2907.03340894625,0,80.57097,0,0 / 0,148835,2018-08-07 18:44:11:480
-0.2128,1.8423,7.7051,-0.057,2.2325,9.549,0.1557,-0.5073,-0.9906,-0.2974,0.1726,-0.0714,80,3.06,35.72,-20.42,355.72,-14.88,0.04,2,42.876,12.925905,77.6864,0,2907.03340894625,0,80.57097,0,0 / 0,149335,2018-08-07 18:44:11:980
0.4804,2.1739,9.3356,0.0679,2.1052,9.5778,0.4686,0.0375,0.2129,-0.9121,-0.1917,-0.1343,80,2.23,36.89,-18.92,356.96,-12.4,-0.41,2,43.991,12.925905,77.6864,0,2907.03340894625,0,80.57097,0,0 / 0,149835,2018-08-07 18:44:12:480
2.5897,0.7541,9.0986,2.8328,2.0101,9.1709,-0.9935,-1.2995,3.5703,0.7583,-0.2471,0.3675,80,-2.42,35.48,-21.28,353.93,-10.63,-16.55,2,45.8,12.925905,77.6864,0,2907.03340894625,0,80.57097,0,0 / 0,150335,2018-08-07 18:44:12:980
2.7704,0.4297,11.2605,1.3922,0.9861,9.6571,1.1315,-0.7437,4.0824,0.1404,0.5273,0.2556,80,8.93,35.88,-16.02,343.29,-5.77,-8.2,2,44.804,12.925905,77.6864,0,2907.03340894625,0,80.57097,0,0 / 0,150835,2018-08-07 18:44:13:480
0.8598,-0.0683,13.3123,0.3928,1.1467,9.7314,0.0236,0.1846,1.215,0.0552,0.0224,0.5933,0,14.04,34.93,-15.18,338.18,-6.72,-2.31,0,52.929,12.925905,77.6864,0,2907.03340894625,0,80.57097,0,0 / 0,151335,2018-08-07 18:44:13:980
1.2968,0.9169,9.6349,0.5879,1.2949,9.703,-0.2161,-0.3816,1.5395,0.3822,-0.246,-0.4783,80,12.6,34.06,-15.78,338.67,-7.59,-3.47,2,55.188,12.925905,77.6864,0,2907.03340894625,0,80.57097,0,0 / 0,151835,2018-08-07 18:44:14:480
0.0662,2.2996,10.5985,0.2275,1.6793,9.6591,0.4885,0.2363,0.7244,0.5516,0.1907,-0.0064,80,9.61,35.95,-19.57,344.62,-8.6,-1.73,2,54.35,12.925905,77.6864,0,2907.03340894625,0,80.57097,0,0 / 0,152335,2018-08-07 18:44:14:980
2.3347,-0.1904,11.4832,2.7492,1.636,9.2702,-0.2576,-1.0928,-1.1448,-0.7715,-1.486,-0.9513,80,-2.55,36.94,-19.78,358.98,-12.14,-10.57,2,58.779,12.925905,77.6864,0,2907.03340894625,0,80.57097,0,0 / 0,152835,2018-08-07 18:44:15:480
1.3638,2.7676,7.3209,1.815,1.9292,9.4422,-1.0117,0.0866,-2.0175,0.9181,1.1963,0.7755,80,-5.06,35.45,-18.61,1.99,-11.35,-10.88,2,54.311,12.925905,77.6864,0,2907.03340894625,0,80.57097,0,0 / 0,153334,2018-08-07 18:44:15:979
0.3966,2.5103,5.3133,-0.5589,3.7771,9.0328,1.0696,-1.2917,-3.5847,-0.2271,0.4251,0.3813,80,15.22,28.5,-22.39,338.8,-23.09,3.05,2,51.858,12.925905,77.6864,0,2907.03340894625,0,80.57097,0,0 / 0,153834,2018-08-07 18:44:16:479
3.9077,1.3132,10.9553,3.7049,0.4846,9.0669,0.6511,0.0172,-0.1622,-0.9536,-0.3675,0.05,80,7.69,35.91,-16.9,339.74,-4.87,-21.38,2,49.889,12.925905,77.6864,0,2907.03340894625,0,80.57097,0,0 / 0,154334,2018-08-07 18:44:16:979
1.8415,-0.9889,8.6389,2.3391,0.4928,9.5109,-0.1393,-1.1509,-0.4689,-0.3027,0.1066,-0.4954,80,7.54,36.14,-13.65,343.03,-3.39,-14.13,2,45.043,12.925905,77.6864,0,2907.03340894625,0,80.57097,0,0 / 0,154834,2018-08-07 18:44:17:479
3.3271,-2.2686,11.2497,1.7059,-0.7207,9.6302,0.3114,-1.8915,5.747,1.5806,0.6594,0.343,120,4.12,39.71,-11.79,351.22,4.21,-10.05,2,44.779,12.925905,77.6864,0,2907.03340894625,0,80.57097,0,0 / 0,155334,2018-08-07 18:44:17:979
-0.463,2.6958,11.8674,0.3369,3.5418,9.1385,-0.6461,-0.3591,3.4042,0.428,-0.1917,0.5091,80,4.36,31.85,-21.68,353.18,-20.39,-1.31,2,43.016,12.925905,77.6864,0,2907.03340894625,0,80.57097,0,0 / 0,155835,2018-08-07 18:44:18:480
1.8247,5.1894,12.2781,0.5171,4.3377,8.78,-0.2653,0.9539,1.3066,-0.0013,-0.2652,-0.1577,80,5.89,30.07,-22.61,348.75,-26.25,-3.37,2,44.437,12.925905,77.6864,0,2907.03340894625,0,80.57097,0,0 / 0,156335,2018-08-07 18:44:18:980
0.3164,5.9735,9.0399,-0.0888,4.3868,8.7703,-0.0041,1.0103,1.1948,0.1138,0.2056,0.0703,80,6.42,30.41,-24.67,351.15,-26.28,0.2,2,43.131,12.925905,77.6864,0,2907.03340894625,0,80.57097,0,0 / 0,156835,2018-08-07 18:44:19:480
0.296,3.4284,9.5535,0.1409,3.278,9.2415,-0.148,-0.1969,-0.5487,-0.063,0.2429,-0.0491,80,6.87,33.96,-23.43,348.73,-19.95,-2.28,2,49.08,12.925905,77.6864,0,2907.03340894625,0,80.57097,0,0 / 0,157335,2018-08-07 18:44:19:980
-0.4354,3.924,6.6277,-0.6023,3.2935,9.2174,-0.1343,-0.1996,-1.6797,0.4919,0.6466,0.3952,80,5.86,35.16,-23.4,353.01,-18.43,2.54,2,50.923,12.925905,77.6864,0,2907.03340894625,0,80.57097,0,0 / 0,157835,2018-08-07 18:44:20:480
-0.0643,3.116,7.7027,-0.0832,2.805,9.3966,-0.14,-0.4637,-0.6974,-0.0609,-0.3313,-0.2238,80,3.92,34.82,-20.74,354.8,-16.79,1.09,2,53.373,12.925905,77.6864,0,2907.03340894625,0,80.57097,0,0 / 0,158335,2018-08-07 18:44:20:980
0.618,3.7373,6.3907,0.5428,3.1402,9.2744,0.4025,0.2852,-1.5656,0.1596,0.4517,0.1459,80,-1.8,33.45,-24.27,0.87,-18.68,-3.35,2,59.1,12.925905,77.6864,0,2907.03340894625,0,80.57097,0,0 / 0,158835,2018-08-07 18:44:21:480
-0.0511,1.8961,9.4062,0.4016,2.7126,9.4155,0.0512,-0.1296,-0.018,-0.6202,0.3271,0.033,80,5.82,33.67,-23.43,349.83,-17.59,-2.63,2,58.639,12.925905,77.6864,0,2907.03340894625,0,80.57097,0,0 / 0,159335,2018-08-07 18:44:21:980
0.2996,1.8136,9.5594,-0.0132,2.8485,9.3838,0.7885,-0.6595,0.8026,0.5814,0.3654,0.1842,80,14.49,33.86,-21.41,340.12,-16.89,0.08,2,46.93,12.925905,77.6864,0,2907.03340894625,0,80.57097,0,0 / 0,159835,2018-08-07 18:44:22:480
-1.0232,3.6535,8.2247,-1.0623,4.128,8.8318,0.2953,-0.4805,1.7994,0.46,0.3707,0.0724,80,22.59,26.96,-23.06,329.7,-23.96,6.1,2,47.253,12.925905,77.6864,0,2907.03340894625,0,80.57097,0,0 / 0,160335,2018-08-07 18:44:22:980
0.3439,3.3004,10.091,-1.4582,3.2955,9.1205,1.1135,0.6945,-0.2063,0.0445,0.0693,-0.163,80,23.53,28.42,-21.56,329.94,-19.64,9.08,2,54.513,12.925905,77.6864,0,2907.03340894625,0,80.57097,0,0 / 0,160835,2018-08-07 18:44:23:480
-1.4158,4.7859,9.3823,-1.0545,3.3262,9.1649,0.6396,0.834,-1.1833,0.0509,-0.2333,-0.3686,80,15.17,32.01,-19.08,341.06,-19.83,6.56,2,60.404,12.925905,77.6864,0,2907.03340894625,0,80.57097,0,0 / 0,161336,2018-08-07 18:44:23:981
-0.2882,4.0593,9.7546,0.1547,3.5755,9.1303,0.5298,0.612,-1.1762,0.1298,-0.0191,-0.2163,80,12.16,33.33,-24.06,342.45,-20.98,-1.06,2,58.088,12.925905,77.6864,0,2907.03340894625,0,80.57097,0,0 / 0,161835,2018-08-07 18:44:24:480
-0.2151,4.7967,6.9713,0.1047,5.0453,8.4086,-1.9422,-0.9837,-2.2622,0.2725,0.408,0.2801,80,6.38,31.15,-31.75,350.95,-30.33,-1.48,2,45.25,12.925905,77.6864,0,2907.03340894625,0,80.57097,0,0 / 0,162335,2018-08-07 18:44:24:980
0.806,3.778,6.6182,0.951,4.1469,8.8357,0.1822,-0.4735,-2.1064,0.1724,0.0618,0.2769,80,13.18,32.78,-26.44,338.78,-24.65,-5.93,2,50.852,12.925905,77.6864,0,2907.03340894625,0,80.57097,0,0 / 0,162835,2018-08-07 18:44:25:480
0.4145,4.0641,5.1996,0.737,3.6279,9.0811,-0.0999,-0.6073,0.4552,0.4089,0.0927,-0.0533,80,12.87,33.63,-24.06,339.59,-21.71,-4.64,2,46.859,12.925905,77.6864,0,2907.03340894625,0,80.57097,0,0 / 0,163335,2018-08-07 18:44:25:980
-0.1912,2.0458,7.5184,0.2839,3.633,9.1044,-0.7996,-0.5791,-1.7305,-0.3485,-0.4197,0.2002,80,17.37,30,-23.56,334.82,-22.53,-0.74,2,47.802,12.925905,77.6864,0,2907.03340894625,0,80.57097,0,0 / 0,163835,2018-08-07 18:44:26:480
1.2142,1.7429,8.5443,0.2449,2.3609,9.5151,1.1837,-0.5427,-0.4799,-0.3794,0.6147,-0.3537,80,13.93,32.01,-18.19,337.13,-14.8,-2.95,2,49.74,12.925905,77.6864,0,2907.03340894625,0,80.57097,0,0 / 0,164334,2018-08-07 18:44:26:979
-0.9957,0.3818,13.9253,-0.4876,2.4126,9.4927,0.2276,-0.1858,3.6536,-0.8705,-0.6743,0.0873,80,11.96,30.82,-17.9,343.3,-16.3,4.6,2,50.463,12.925905,77.6864,0,2907.03340894625,0,80.57097,0,0 / 0,164834,2018-08-07 18:44:27:479
0.8694,1.871,10.9385,0.4074,1.8927,9.6136,-0.1265,0.406,0.7246,-0.4945,-0.3558,-0.3079,80,9.67,30.5,-15.83,342.3,-11.13,-2.43,2,43.871,12.925905,77.6864,0,2907.03340894625,0,80.57097,0,0 / 0,165335,2018-08-07 18:44:27:980
-1.581,1.9201,11.3778,0.125,1.5458,9.6833,-1.988,0.6272,0.6065,-0.3177,-0.3813,0.3206,80,7.2,30.51,-15.23,348.07,-9.74,0.04,2,43.905,12.925905,77.6864,0,2907.03340894625,0,80.57097,0,0 / 0,165835,2018-08-07 18:44:28:480
1.2022,2.2337,9.7103,0.4624,2.3631,9.5064,0.2369,-0.6623,-2.5733,0.4003,-0.3387,-0.0469,80,10.48,28.76,-18.52,341.82,-13.04,-2,2,49.53,12.925905,77.6864,0,2907.03340894625,0,80.57097,0,0 / 0,166335,2018-08-07 18:44:28:980
-1.0029,2.8514,8.4557,0.1749,2.0653,9.5851,-0.6522,0.6433,-1.0303,0.1937,-0.0543,-0.2749,80,4.89,30.89,-18.45,351.05,-11.62,-1.12,2,46.587,12.925905,77.6864,0,2907.03340894625,0,80.57097,0,0 / 0,166835,2018-08-07 18:44:29:480
2.1312,2.205,6.5703,0.5792,2.2067,9.5376,1.3631,-1.0053,-2.3998,0.5047,0.0373,0.4165,80,10.21,31.77,-19.65,342.56,-10.71,-2.94,2,51.225,12.925905,77.6864,0,2907.03340894625,0,80.57097,0,0 / 0,167335,2018-08-07 18:44:29:980
-0.2415,2.7317,7.0515,0.6609,1.6194,9.6494,-0.2821,1.0728,-4.0723,0.2832,0.457,-0.0224,80,10.48,35.34,-19.29,343.28,-9.51,-3.92,2,49.945,12.925905,77.6864,0,2907.03340894625,0,80.57097,0,0 / 0,167835,2018-08-07 18:44:30:480
1.4452,0.5781,7.8524,0.9089,1.8203,9.5933,2.5533,-0.8095,0.7812,0.2821,0.6466,-0.4283,80,15.36,32.6,-18.78,334.21,-10.06,-6.79,2,51.427,12.925905,77.6864,0,2907.03340894625,0,80.57097,0,0 / 0,168335,2018-08-07 18:44:30:980
0.5881,3.2848,4.6202,1.8328,2.178,9.3844,-0.3504,0.9443,-3.7358,0.1628,0.4485,-0.2781,80,5.64,33.65,-22.54,344.15,-12.18,-12.14,2,50.637,12.925905,77.6864,0,2907.03340894625,0,80.57097,0,0 / 0,168835,2018-08-07 18:44:31:480
1.7026,1.0151,8.9848,1.2541,1.6549,9.5843,0.5656,-0.6448,0.5646,-0.0098,-0.3558,-0.1758,80,8.54,35.67,-20.16,343.76,-9.76,-6.67,2,50.971,12.925905,77.6864,0,2907.03340894625,0,80.57097,0,0 / 0,169335,2018-08-07 18:44:31:980
3.1236,2.5115,8.9776,1.6136,2.0571,9.4517,-0.1339,0.3586,0.2315,-0.0971,-0.1779,0.3099,120,2.57,37.53,-21.27,351.09,-12.11,-9.69,2,45.88,12.925905,77.6864,0,2907.03340894625,0,80.57097,0,0 / 0,169835,2018-08-07 18:44:32:480
1.1651,2.9173,7.0264,1.9579,3.8478,8.8052,-0.7526,-1.3969,5.6519,1.2643,0.456,0.7328,80,8.32,30.48,-29.11,339.2,-21.03,-12.86,2,45.66,12.925905,77.6864,0,2907.03340894625,0,80.57097,0,0 / 0,170334,2018-08-07 18:44:32:979
2.1862,4.7429,8.1744,1.3586,3.9229,8.8846,0.6506,0.5649,0.9221,-0.3656,-0.033,-0.8139,80,8.53,31.07,-28.81,341.34,-23.58,-8.69,2,49.97,12.925905,77.6864,0,2907.03340894625,0,80.57097,0,0 / 0,170835,2018-08-07 18:44:33:480
0.3283,4.2317,9.6444,0.947,3.0377,9.2761,-0.1978,0.9746,-1.2004,-0.2569,0.1076,-0.1748,120,-0.21,33.75,-25.16,356.37,-18.04,-5.83,2,45.179,12.925905,77.6864,0,2907.03340894625,0,80.57097,0,0 / 0,171335,2018-08-07 18:44:33:980
1.3554,2.4564,8.3815,1.4181,3.0146,9.2234,-0.4033,-0.2689,-2.6193,-0.0183,-0.0873,-0.3026,120,2.76,32.54,-25.5,350,-17.31,-8.89,2,47.021,12.925905,77.6864,0,2907.03340894625,0,80.57097,0,0 / 0,171835,2018-08-07 18:44:34:480
-0.0835,3.7337,6.5224,1.6528,3.1099,9.1524,-1.6309,0.7536,-2.788,-0.356,-0.0128,-0.5231,120,-3.79,31.67,-24,359.17,-18.9,-10.77,2,47.374,12.928305,77.686,0,2901.39987219228,0,2903.223,0,0 / 0,172335,2018-08-07 18:44:34:980
0.6695,2.3522,4.7172,1.613,3.1107,9.1593,-0.7149,-1.4727,-2.3955,0.5069,0.4538,0.3046,120,2.72,31.04,-24.93,348.31,-17.55,-10.76,2,47.981,12.928305,77.686,0,2901.39987219228,0,2903.223,0,0 / 0,172834,2018-08-07 18:44:35:479
1.523,3.3925,4.4131,1.6485,2.8778,9.2288,0.7483,0.109,-2.0711,0.3535,0.4283,0.1448,80,3.3,32.17,-22.26,349.5,-17.07,-10.13,2,48.189,12.928305,77.686,0,2901.39987219228,0,2903.223,0,0 / 0,173335,2018-08-07 18:44:35:980
2.2353,1.5023,8.67,1.6093,2.4861,9.3488,1.1144,-0.5148,-0.9754,-0.2836,0.2919,-0.0555,120,7.59,33.63,-22.26,342.77,-15.32,-10.36,2,47.395,12.928305,77.686,0,2901.39987219228,0,2903.223,0,0 / 0,173835,2018-08-07 18:44:36:480
2.4268,2.77,5.9358,1.6689,2.4799,9.34,0.5267,-0.1149,0.8846,0.4728,0.0735,0.5454,80,4.71,32.19,-23.45,346.18,-14.65,-10.13,2,51.903,12.928305,77.686,0,2901.39987219228,0,2903.223,0,0 / 0,174335,2018-08-07 18:44:36:980
2.136,2.7353,7.2849,1.5681,3.2949,9.1025,-0.0984,-0.1161,-1.7679,0.1116,-0.2109,0.327,120,10.18,31.84,-23.19,340.09,-19.45,-9,2,51.502,12.928305,77.686,0,2901.39987219228,0,2903.223,0,0 / 0,174835,2018-08-07 18:44:37:480
2.7022,2.7928,8.8807,1.9685,2.6478,9.2349,0.2244,-0.7321,5.5821,0.0531,0.2163,0.0468,80,2.46,33.35,-21.35,350.34,-15.66,-12.03,2,54.261,12.928305,77.686,0,2901.39987219228,0,2903.223,0,0 / 0,175335,2018-08-07 18:44:37:980
2.7201,2.8311,8.0092,1.8475,2.3726,9.3342,0.7807,-0.609,3.0599,0.6432,0.571,0.8426,80,5.96,32.78,-23.74,344.27,-14,-11.2,2,58.001,12.928305,77.686,0,2901.39987219228,0,2903.223,0,0 / 0,175835,2018-08-07 18:44:38:480
1.9887,2.0937,13.3519,2.0896,2.437,9.2664,0.1075,0.6146,2.8701,-0.9259,-0.4133,-0.4368,80,2.49,34.86,-21.91,350.5,-16.23,-12.22,2,45.824,12.928305,77.686,0,2901.39987219228,0,2903.223,0,0 / 0,176335,2018-08-07 18:44:38:980
1.3914,1.8842,14.9512,1.5503,2.6465,9.3147,0.3095,1.2478,3.2041,-0.5264,-0.4975,0.3984,80,3.94,35.4,-19.55,350.14,-16.93,-8.14,2,42.229,12.928305,77.686,0,2901.39987219228,0,2903.223,0,0 / 0,176835,2018-08-07 18:44:39:480
0.8766,1.7046,19.8234,1.3935,2.4293,9.3982,0.1184,0.8082,3.6104,-2.1403,0.0139,-1.1207,80,4.21,33.4,-24.31,347.56,-20.4,-11.17,2,45.281,12.928305,77.686,0,2901.39987219228,0,2903.223,0,0 / 0,177336,2018-08-07 18:44:39:981
0.3547,3.6918,11.5825,0.8406,2.8661,9.3407,-0.8758,0.3522,2.0176,-0.2953,0.309,0.4005,80,7.42,33.9,-20.77,347.03,-16.99,-5.14,2,44.81,12.928305,77.686,0,2901.39987219228,0,2903.223,0,0 / 0,177835,2018-08-07 18:44:40:480
1.4716,2.8778,8.731,1.4814,2.7424,9.2981,0.221,-0.2781,-1.4785,-0.2814,-0.5038,-0.4901,80,10.22,33.01,-21.99,340.8,-16.69,-8.22,2,46.65,12.928305,77.686,0,2901.39987219228,0,2903.223,0,0 / 0,178335,2018-08-07 18:44:40:980
0.2673,3.0119,10.6751,0.8971,2.7467,9.3713,-0.335,0.2168,-0.3161,0.2661,0.196,0.0394,80,9.88,33.31,-21.98,341.92,-15.65,-5.9,2,48.342,12.928305,77.686,0,2901.39987219228,0,2903.223,0,0 / 0,178835,2018-08-07 18:44:41:480
0.8646,1.9464,7.2455,0.5498,2.9253,9.344,0.3691,-1.2912,-2.4951,0.574,0.2674,-0.0874,80,15.14,31.45,-20.86,335.07,-16.1,-3.95,2,47.714,12.928305,77.686,0,2901.39987219228,0,2903.223,0,0 / 0,179335,2018-08-07 18:44:41:980
-0.3205,2.9963,8.518,0.759,2.2295,9.5196,-0.9725,0.7074,-2.7072,0.1894,-0.1449,-0.2344,80,7.15,35.94,-18.37,347.84,-13.14,-4.56,2,46.221,12.928305,77.686,0,2901.39987219228,0,2903.223,0,0 / 0,179835,2018-08-07 18:44:42:480
1.292,1.7549,5.8448,1.2351,2.5048,9.4006,0.1222,-0.729,-3.3268,0.6358,-0.0586,0.3696,80,15.09,30.31,-23.25,332.53,-13.47,-7.04,2,51.313,12.928305,77.686,0,2901.39987219228,0,2903.223,0,0 / 0,180335,2018-08-07 18:44:42:980
1.4309,3.0837,5.463,1.7886,2.3115,9.361,-0.3137,0.2506,-2.6456,0.5878,0.4464,0.2236,80,11.5,33.84,-19.32,336.98,-12.34,-11.63,2,53.019,12.928305,77.686,0,2901.39987219228,0,2903.223,0,0 / 0,180835,2018-08-07 18:44:43:480
2.6124,1.5406,7.4921,2.4627,3.2244,8.928,0.0029,-0.8205,-0.4879,0.2949,-0.4719,-0.0022,80,15.47,25.86,-24.81,326.42,-18.61,-14.29,2,52.959,12.928305,77.686,0,2901.39987219228,0,2903.223,0,0 / 0,181335,2018-08-07 18:44:43:980
4.0369,2.5043,8.4629,2.3091,2.5276,9.1897,1.4191,-0.042,0.0631,0.4919,0.2301,0.5677,80,17.19,30.01,-23.86,326.57,-13.57,-13.8,2,58.512,12.928305,77.686,0,2901.39987219228,0,2903.223,0,0 / 0,181836,2018-08-07 18:44:44:481
1.7828,2.7509,7.8488,1.8762,3.338,9.0282,0.5358,-0.9312,3.3482,0.5452,0.9279,0.7361,80,24.42,23.09,-24.02,314.57,-19.9,-11.74,2,60.664,12.928305,77.686,0,2901.39987219228,0,2903.223,0,0 / 0,182335,2018-08-07 18:44:44:980
3.5856,1.4484,9.3499,2.4241,2.7298,9.1018,0.6348,-1.2223,4.7046,-0.0226,0.4123,-0.0139,80,22.5,24.31,-24.87,315.11,-16.45,-15.92,2,58.2,12.928305,77.686,0,2901.39987219228,0,2903.223,0,0 / 0,182835,2018-08-07 18:44:45:480
4.3757,3.1387,13.687,2.2292,3.5217,8.8769,0.0047,1.0402,1.9126,-0.03,-0.7808,0.5283,80,24.87,20.42,-24.96,309.7,-21.05,-14.1,2,63.091,12.928305,77.686,0,2901.39987219228,0,2903.223,0,0 / 0,183336,2018-08-07 18:44:45:981
4.8498,3.3566,9.5235,3.6035,3.0507,8.5953,-0.0801,0.9078,0.3294,-0.9355,-1.5063,-0.473,80,19.09,23.53,-28.71,316.82,-19.62,-19.97,2,62.142,12.928305,77.686,0,2901.39987219228,0,2903.223,0,0 / 0,183835,2018-08-07 18:44:46:480
3.4899,3.1495,10.717,3.251,3.0759,8.7259,-0.4446,0.2509,0.541,0.1958,-0.2279,0.181,80,18.62,24.95,-25.43,317.55,-18.28,-20.43,2,55.158,12.928305,77.686,0,2901.39987219228,0,2903.223,0,0 / 0,184335,2018-08-07 18:44:46:980
4.4092,3.3399,9.0614,4.0241,3.1636,8.3647,-0.1581,0.0598,-1.2122,0.118,-0.8596,-0.5348,80,18.69,22.07,-30.51,312.31,-18.03,-24.04,2,48.539,12.928305,77.686,0,2901.39987219228,0,2903.223,0,0 / 0,184835,2018-08-07 18:44:47:480
3.181,3.0597,9.0938,3.536,2.6685,8.7491,-0.6316,0.5507,-0.0703,-0.0609,-0.1949,-0.2568,80,15.34,27.36,-25.07,323.03,-15.71,-21.67,2,48.684,12.928305,77.686,0,2901.39987219228,0,2903.223,0,0 / 0,185335,2018-08-07 18:44:47:980
3.2157,2.2373,4.7603,3.993,2.6136,8.5671,-0.5673,-0.6895,-2.9615,0.5548,0.2344,-0.0608,80,12.26,25.36,-28.34,322.42,-15.46,-24.99,2,52.307,12.928305,77.686,0,2901.39987219228,0,2903.223,0,0 / 0,185835,2018-08-07 18:44:48:480
3.1295,1.8602,5.6796,4.1314,1.5946,8.7498,1.1859,-0.277,-0.4603,0.0744,0.4346,0.0404,80,14.34,29.13,-23.85,323.36,-9.28,-26.1,2,51.684,12.928305,77.686,0,2901.39987219228,0,2903.223,0,0 / 0,186335,2018-08-07 18:44:48:980
4.4212,0.5961,11.1169,4.0406,2.2382,8.6507,-0.0188,-0.3993,-1.8477,-0.3368,-0.7361,0.1672,80,18.62,24.66,-25.44,315.69,-14.04,-23.29,2,50.9,12.928305,77.686,0,2901.39987219228,0,2903.223,0,0 / 0,186835,2018-08-07 18:44:49:480
5.3825,0.5877,10.413,4.5347,1.9405,8.4759,0.7031,-0.147,4.9038,-0.7438,-0.4527,-0.1843,80,14.97,27.1,-26.85,319.41,-12.81,-27.55,2,53.075,12.928305,77.686,0,2901.39987219228,0,2903.223,0,0 / 0,187336,2018-08-07 18:44:49:981
7.3721,2.1033,14.0007,3.5706,2.1367,8.8801,1.0717,1.1674,0.9878,-0.3315,-0.327,0.5187,80,18.3,25.55,-25.42,318.06,-12.58,-21.9,2,54.62,12.928305,77.686,0,2901.39987219228,0,2903.223,0,0 / 0,187835,2018-08-07 18:44:50:480
4.8199,2.5462,8.3887,4.4442,2.6716,8.3236,0.1971,0.2035,-0.2504,-0.7491,-0.5923,-0.5199,80,13.99,23.83,-27.2,319.27,-17.39,-25.92,2,53.977,12.928305,77.686,0,2901.39987219228,0,2903.223,0,0 / 0,188335,2018-08-07 18:44:50:980
3.7137,2.8742,10.0215,4.228,2.0651,8.6041,-0.9187,1.1884,0.5737,0.0051,-0.196,-0.2206,80,12.04,29.48,-25.31,325.93,-12.15,-25.67,2,50.813,12.928305,77.686,0,2901.39987219228,0,2903.223,0,0 / 0,188835,2018-08-07 18:44:51:480
4.2452,2.5294,7.1868,4.5071,2.3738,8.3798,-1.356,-0.3969,-2.6511,0.314,-0.0714,0.0447,80,17.36,25.05,-29.85,314.52,-13.4,-28,2,49.494,12.928305,77.686,0,2901.39987219228,0,2903.223,0,0 / 0,189335,2018-08-07 18:44:51:980
2.6244,2.8706,6.9581,4.7002,2.1126,8.3436,-2.1944,0.634,-2.436,0.1095,-0.1076,-0.2877,80,12.5,27.41,-26.24,320.86,-11.44,-29.62,2,48.223,12.928305,77.686,0,2901.39987219228,0,2903.223,0,0 / 0,189835,2018-08-07 18:44:52:480
3.272,1.5322,6.0352,4.4921,1.9496,8.4965,0.0876,-0.8527,-0.7373,0.036,0.3228,-0.1279,80,14.59,26.52,-27.45,319.04,-11.47,-27.87,2,48.789,12.928305,77.686,0,2901.39987219228,0,2903.223,0,0 / 0,190335,2018-08-07 18:44:52:980
4.1447,2.4851,4.309,5.0827,1.8076,8.1896,0.3584,0.4757,-2.5399,0.2661,-0.0468,-0.2248,80,10.44,28.87,-23.84,325.91,-9.76,-31.57,2,48.921,12.928305,77.686,0,2901.39987219228,0,2903.223,0,0 / 0,190835,2018-08-07 18:44:53:480
5.5405,0.9624,8.5072,4.5164,2.0553,8.4586,1.0766,-0.7734,0.3136,0.0371,-0.3824,-0.0373,80,12.02,28.57,-24.74,325.27,-12.07,-27.16,2,52.94,12.928305,77.686,0,2901.39987219228,0,2903.223,0,0 / 0,191335,2018-08-07 18:44:53:980
6.2612,2.1679,9.2817,5.6481,1.735,7.8268,1.005,0.0671,3.8346,-0.7374,0.3707,-0.1321,80,7.68,31.92,-26.13,327.63,-12.39,-36.83,2,50.665,12.928305,77.686,0,2901.39987219228,0,2903.223,0,0 / 0,191835,2018-08-07 18:44:54:480
5.92,0.9804,8.263,5.627,1.6626,7.8576,0.8869,0.4096,2.9051,0.1362,-0.9172,0.9214,80,8.17,30.75,-27.63,325.85,-9.76,-35.61,2,52.916,12.928305,77.686,0,2901.39987219228,0,2903.223,0,0 / 0,192335,2018-08-07 18:44:54:980
8.5117,1.2976,12.1751,5.8581,2.3974,7.4904,0.7759,-0.1407,-1.4497,-0.7906,-0.262,-0.0991,80,9.63,26.92,-30.36,319.51,-15.42,-37.62,2,55.566,12.928305,77.686,0,2901.39987219228,0,2903.223,0,0 / 0,192835,2018-08-07 18:44:55:480
4.6954,1.9428,9.3655,5.428,1.9809,7.9236,-0.7101,0.1186,1.1248,0.4547,0.147,0.3249,80,10.62,29.2,-25.9,322.94,-11.65,-34.41,2,51.474,12.928305,77.686,0,2901.39987219228,0,2903.223,0,0 / 0,193335,2018-08-07 18:44:55:980
5.0736,1.6436,6.1956,5.5664,2.1508,7.782,-0.8723,-0.5066,-2.8998,0.2736,-0.3323,-0.2983,80,14.32,23.58,-29.57,313.23,-11.76,-34.77,2,49.606,12.928305,77.686,0,2901.39987219228,0,2903.223,0,0 / 0,193835,2018-08-07 18:44:56:480
4.596,2.472,8.7981,5.2335,1.5935,8.1389,-2.2388,0.6305,-3.6828,-0.2058,-0.1683,-0.2578,80,12.36,28.61,-26.51,321.68,-9.35,-32.74,2,43.191,12.928305,77.686,0,2901.39987219228,0,2903.223,0,0 / 0,194335,2018-08-07 18:44:56:980
4.1483,1.0438,4.6908,5.3611,1.9723,7.9711,-0.564,-1.1279,-2.7476,0.3311,0.1002,-0.1343,80,16.11,24.77,-30.15,312.53,-10.87,-34.01,2,43.835,12.928305,77.686,0,2901.39987219228,0,2903.223,0,0 / 0,194835,2018-08-07 18:44:57:480
2.7596,2.642,5.5827,5.3108,1.4682,8.1123,-0.4974,0.4814,-2.4198,-0.3475,0.3452,-0.2163,80,14.3,28.26,-25.05,319.03,-8.48,-34.41,2,44.995,12.928305,77.686,0,2901.39987219228,0,2903.223,0,0 / 0,195335,2018-08-07 18:44:57:980
4.7001,0.9708,5.6736,4.6388,1.9127,8.4258,0.8228,-1.5588,-1.0266,0.1116,0.1311,0.2716,80,19.83,24.07,-26.34,310.97,-11.25,-28.83,2,45.212,12.928305,77.686,0,2901.39987219228,0,2903.223,0,0 / 0,195835,2018-08-07 18:44:58:480
5.9727,1.6328,7.9781,5.563,1.5839,7.9192,0.6144,0.1979,1.9188,-0.3219,0.0767,-0.0672,80,13.39,27.72,-27.12,318.88,-9.81,-35.41,2,47.207,12.928305,77.686,0,2901.39987219228,0,2903.223,0,0 / 0,196335,2018-08-07 18:44:58:980
5.659,1.0462,7.0934,5.6578,1.7989,7.8053,2.1682,-1.246,6.5136,1.4241,0.6488,0.506,80,15.07,25.07,-29.54,311.93,-8.93,-37.12,2,46.284,12.928305,77.686,0,2901.39987219228,0,2903.223,0,0 / 0,196837,2018-08-07 18:44:59:482
6.169,1.7872,11.3635,5.993,1.7357,7.5658,1.2237,1.0718,-0.3081,-2.0572,-0.1598,-0.0629,80,11.05,26.56,-28.02,318.83,-13.65,-38.53,2,49.886,12.928305,77.686,0,2901.39987219228,0,2903.223,0,0 / 0,197335,2018-08-07 18:44:59:980
6.9866,2.1499,10.219,5.3976,1.5366,8.0421,0.911,0.4857,2.3804,-0.095,0.3058,0.5635,80,14.98,28.04,-29.19,316.46,-9.01,-33.87,2,50.196,12.928305,77.686,0,2901.39987219228,0,2903.223,0,0 / 0,197835,2018-08-07 18:45:00:480
6.0672,2.3367,6.8265,5.6782,2.5863,7.5657,0.5077,-0.3408,0.3192,-0.3677,-0.3686,-0.2834,80,14.13,24.55,-33.39,313.26,-15.62,-36.31,2,51.007,12.928305,77.686,0,2901.39987219228,0,2903.223,0,0 / 0,198335,2018-08-07 18:45:00:980
4.0633,2.3858,9.5726,4.5727,2.3864,8.3406,-1.0626,0.1203,0.1468,0.2682,0.0948,-0.375,80,12.34,28.34,-28.29,322.55,-13.12,-29.16,2,52.262,12.928305,77.686,0,2901.39987219228,0,2903.223,0,0 / 0,198836,2018-08-07 18:45:01:481
3.9962,1.7321,6.9378,4.6981,2.5461,8.2229,-0.4669,-0.816,-2.5756,0.1106,-0.1843,-0.4272,80,16.67,25.66,-29.84,315.05,-14.37,-29.42,2,54.685,12.928305,77.686,0,2901.39987219228,0,2903.223,0,0 / 0,199336,2018-08-07 18:45:01:981
1.8115,2.4887,7.2873,4.1678,1.8988,8.6715,-2.0825,0.8348,-2.6836,-0.0322,0.0394,-0.3069,80,12.73,28.56,-24.15,324.31,-10.79,-27.2,2,45.743,12.928305,77.686,0,2901.39987219228,0,2903.223,0,0 / 0,199835,2018-08-07 18:45:02:480
3.26,1.2246,4.7124,3.7986,2.0105,8.8147,0.8523,-1.3169,-1.0181,0.8808,0.6924,0.0063,80,20.83,22.63,-29.33,310.49,-11.83,-23.31,2,44.326,12.928305,77.686,0,2901.39987219228,0,2903.223,0,0 / 0,200335,2018-08-07 18:45:02:980
3.1343,2.2756,4.2611,4.3889,1.4372,8.6512,0.6853,-0.0155,-1.1813,0.7125,-0.0532,0.197,80,16.37,26.47,-25.69,317.01,-7.18,-26.51,2,45.811,12.928305,77.686,0,2901.39987219228,0,2903.223,0,0 / 0,200834,2018-08-07 18:45:03:479
6.0277,0.6703,8.5419,4.407,1.5932,8.6145,1.4723,-0.8338,-0.2101,-0.0013,-0.2631,0.1683,80,18.93,24.13,-28.99,311.67,-9.61,-26.3,2,42.936,12.928305,77.686,0,2901.39987219228,0,2903.223,0,0 / 0,201335,2018-08-07 18:45:03:980
4.7696,2.3331,7.7925,4.9992,2.2844,8.1216,1.8159,-0.2576,6.5486,0.4334,0.734,-0.1886,80,11.53,25.07,-28.34,318.03,-13.16,-33.14,2,44.479,12.928305,77.686,0,2901.39987219228,0,2903.223,0,0 / 0,201835,2018-08-07 18:45:04:480
5.3047,1.1743,12.7497,4.5609,1.5194,8.5475,0.6295,0.9886,1.8251,-1.1858,-0.5912,0.3387,80,11.86,29.17,-24.43,324.83,-8.91,-28.08,2,44.056,12.928305,77.686,0,2901.39987219228,0,2903.223,0,0 / 0,202335,2018-08-07 18:45:04:980
5.1359,2.4923,5.6126,4.6325,2.9888,8.1104,0.0155,-1.0097,-0.8086,-0.552,-0.3313,-0.3441,80,11.39,26.59,-29.79,322.96,-18.52,-29.37,2,50.021,12.928305,77.686,0,2901.39987219228,0,2903.223,0,0 / 0,202835,2018-08-07 18:45:05:480
3.9819,2.363,9.8599,4.2301,1.8663,8.6484,-0.8323,0.364,1.8617,0.0733,0.2088,0.3025,80,10,31.83,-22.89,331.05,-10.97,-26.06,2,49.772,12.928305,77.686,0,2901.39987219228,0,2903.223,0,0 / 0,203336,2018-08-07 18:45:05:981
3.7353,2.3977,7.182,4.6285,2.9344,8.1325,-0.6834,-0.687,-0.6317,0.7689,0.6094,-0.4581,120,12.73,23.9,-29.85,316.65,-15.43,-31.05,2,55.673,12.928305,77.686,0,2901.39987219228,0,2903.223,0,0 / 0,203834,2018-08-07 18:45:06:479
2.1515,4.3993,7.6154,2.632,3.6233,8.7244,-0.8827,-0.531,-1.3366,0.5314,0.8501,0.1651,80,19.78,22.92,-28.72,314.93,-19.97,-19.9,2,52.606,12.928305,77.686,0,2901.39987219228,0,2903.223,0,0 / 0,204334,2018-08-07 18:45:06:979
1.4835,3.5015,7.3819,1.3147,4.1576,8.7838,-0.1233,-1.029,-2.0368,0.2128,-0.0511,0.1512,80,26.87,15.92,-24.46,307.07,-25.08,-8.51,2,52.717,12.928305,77.686,0,2901.39987219228,0,2903.223,0,0 / 0,204836,2018-08-07 18:45:07:481
1.0598,4.3813,5.2726,1.6687,4.384,8.612,0.2298,-0.7039,-0.1771,-0.0194,0.0895,-0.179,80,27.79,17.72,-25.32,307.23,-26.58,-11.34,2,51,12.928305,77.686,0,2901.39987219228,0,2903.223,0,0 / 0,205336,2018-08-07 18:45:07:981
2.4675,0.9923,10.0515,1.8023,1.6365,9.4997,0.2298,0.2707,0.0291,-0.2537,-0.6423,0.1001,80,25.07,26.29,-20.13,314.84,-9.61,-10.74,2,47.951,12.928305,77.686,0,2901.39987219228,0,2903.223,0,0 / 0,205835,2018-08-07 18:45:08:480
2.276,0.8487,10.5973,2.654,1.3147,9.3487,0.8418,-0.6962,4.907,-0.5563,-0.3643,-0.4986,80,17.74,29.92,-20.02,324.26,-7.7,-15.85,2,51.577,12.928305,77.686,0,2901.39987219228,0,2903.223,0,0 / 0,206335,2018-08-07 18:45:08:980
3.6527,-0.7542,15.8466,2.6618,0.7644,9.4075,1.8655,-0.543,6.4526,-0.5318,-0.6242,0.3696,80,19.55,31.11,-20.6,322.09,-4.47,-15.8,2,50.037,12.928305,77.686,0,2901.39987219228,0,2903.223,0,0 / 0,206835,2018-08-07 18:45:09:480
4.5601,1.0223,12.9017,3.2507,2.1443,9.0003,0.0259,-0.1663,-1.0256,-0.6404,-0.4463,-0.2184,80,18.84,26.15,-25.71,318.26,-13.82,-19.04,2,53.735,12.928305,77.686,0,2901.39987219228,0,2903.223,0,0 / 0,207335,2018-08-07 18:45:09:980
2.2557,2.1104,10.1089,2.6548,1.5594,9.3108,-1.1878,0.6237,0.5136,0.2842,0.2536,0.229,80,21.24,28.73,-21.24,320,-9.15,-15.91,2,49.112,12.928305,77.686,0,2901.39987219228,0,2903.223,0,0 / 0,207834,2018-08-07 18:45:10:479
3.375,1.0977,8.7454,3.1173,2.2642,9.0181,-0.2244,-1.0242,-2.0278,0.5953,-0.3345,-0.244,80,19,25.23,-24.25,317.47,-13.35,-19.07,2,48.057,12.928305,77.686,0,2901.39987219228,0,2903.223,0,0 / 0,208335,2018-08-07 18:45:10:980
0.7748,2.8131,9.5163,2.8089,1.8389,9.2141,-2.0167,1.325,-0.7734,0.1106,0.1193,0.0127,80,18.75,28.47,-22.42,320.82,-10.42,-17.38,2,52.189,12.928305,77.686,0,2901.39987219228,0,2903.223,0,0 / 0,208835,2018-08-07 18:45:11:480
3.1188,1.7226,5.269,2.7925,2.5555,9.0467,0.2307,-1.2759,-2.1758,0.624,0.1044,0.0095,80,24.93,22.82,-25.51,310.02,-13.83,-17.19,2,53.659,12.928305,77.686,0,2901.39987219228,0,2903.223,0,0 / 0,209335,2018-08-07 18:45:11:980
1.2693,2.703,6.2052,2.8128,1.5505,9.2658,-0.9914,0.8677,-2.9441,-0.0002,0.261,-0.1172,80,20.53,29.37,-23,318.61,-8.49,-18.61,2,47.467,12.928305,77.686,0,2901.39987219228,0,2903.223,0,0 / 0,209835,2018-08-07 18:45:12:480
2.4544,0.7134,8.4485,2.935,1.6273,9.2146,0.5476,-0.5113,-0.333,-0.0865,-0.0458,0.1257,30,26.88,22.76,-23.45,307.35,-9.55,-17.67,2,45.342,12.928305,77.686,0,2901.39987219228,0,2903.223,0,0 / 0,210336,2018-08-07 18:45:12:981
4.9934,1.6723,9.4709,3.1318,1.4665,9.1767,0.9012,0.0884,-0.1042,-0.3315,-0.2365,0.0436,30,21.31,25.81,-24.55,315.68,-9.34,-18.24,2,46.489,12.928305,77.686,0,2901.39987219228,0,2903.223,0,0 / 0,210835,2018-08-07 18:45:13:480
3.0781,0.9804,9.1201,2.9476,1.4207,9.2447,0.1879,-0.5453,0.4957,0.4675,0.4538,0.6593,30,24.64,24.25,-22.53,309.64,-7.85,-18.46,2,43.978,12.928305,77.686,0,2901.39987219228,0,2903.223,0,0 / 0,211334,2018-08-07 18:45:13:979
3.2995,0.4656,14.2988,4.0324,1.5462,8.8045,1.7313,-0.0226,3.4237,-1.7654,-1.0034,-0.5369,30,21.33,26.72,-25.12,315.48,-12.29,-22.84,2,45.012,12.928305,77.686,0,2901.39987219228,0,2903.223,0,0 / 0,211835,2018-08-07 18:45:14:480
5.7536,0.2202,18.1522,2.6534,1.6391,9.2975,-0.0958,1.0533,0.9437,-0.3432,0.1598,0.3643,30,23.8,25.74,-22.2,313.95,-9.62,-15.93,2,49.549,12.928305,77.686,0,2901.39987219228,0,2903.223,0,0 / 0,212335,2018-08-07 18:45:14:980
3.3977,1.6591,6.3428,3.2685,2.7992,8.812,-0.3462,-1.3159,-1.4944,-0.0055,-0.3409,-0.3036,30,23.67,22.57,-27.57,310.34,-16.44,-19.75,2,48.096,12.928305,77.686,0,2901.39987219228,0,2903.223,0,0 / 0,212835,2018-08-07 18:45:15:480
1.1926,2.3367,9.49,2.7157,1.7389,9.2613,-1.3346,0.9403,-1.5253,0.3407,0.1193,-0.0427,80,22.07,27.26,-22.75,316.53,-9.32,-16.68,2,50.248,12.928305,77.686,0,2901.39987219228,0,2903.223,0,0 / 0,213334,2018-08-07 18:45:15:979
3.6826,1.3886,7.1449,2.2006,1.5793,9.4252,-0.5653,-1.3871,-3.5013,0.2097,0.1438,0.5006,80,27.18,20.04,-21.73,305.29,-9.14,-13.24,2,51.661,12.928305,77.686,0,2901.39987219228,0,2903.223,0,0 / 0,213835,2018-08-07 18:45:16:480
1.1675,2.2457,5.7694,2.8746,1.1641,9.3033,-1.6281,1.0423,-3.3257,-0.0098,0.048,-0.4773,80,25.24,26.92,-22.18,312.55,-5.81,-18.5,2,51.653,12.928305,77.686,0,2901.39987219228,0,2903.223,0,0 / 0,214334,2018-08-07 18:45:16:979
2.3598,-0.267,9.1273,2.7024,0.7478,9.3972,0.2724,-1.2221,-0.2424,0.1788,0.5806,0.0671,80,26.59,24.54,-22.83,308.5,-4.15,-17.3,2,51.947,12.928305,77.686,0,2901.39987219228,0,2903.223,0,0 / 0,214835,2018-08-07 18:45:17:480
2.9177,1.6136,6.6397,3.2602,0.8614,9.2087,0.5229,0.3845,0.18,-0.1696,-0.2034,-0.0309,80,22.41,27.29,-24.53,314.47,-5.34,-19.01,2,51.017,12.928305,77.686,0,2901.39987219228,0,2903.223,0,0 / 0,215335,2018-08-07 18:45:17:980
3.3031,0.9349,7.9302,2.7311,1.1837,9.344,0.0001,-0.4348,-0.0578,0.2746,-0.246,0.5741,80,25.48,23.71,-25.79,309.91,-6.73,-15.57,2,48.197,12.928305,77.686,0,2901.39987219228,0,2903.223,0,0 / 0,215835,2018-08-07 18:45:18:480
3.7616,1.4413,11.0558,3.5746,1.5551,8.9986,0.254,-0.0419,2.865,-0.3219,-0.0298,-0.2344,80,21.57,23.82,-29.31,311.11,-10.79,-21.46,2,45.966,12.928305,77.686,0,2901.39987219228,0,2903.223,0,0 / 0,216335,2018-08-07 18:45:18:980
4.4128,0.0981,16.6834,2.6563,1.2553,9.3562,0.3687,0.6304,2.4532,-0.1035,0.0948,0.7052,80,25.64,22.8,-24.92,308.12,-7.35,-15.85,2,47.932,12.928305,77.686,0,2901.39987219228,0,2903.223,0,0 / 0,216835,2018-08-07 18:45:19:480
3.5006,2.2134,6.0843,3.0632,2.4522,8.9874,-0.097,-1.0008,-1.0854,-0.3294,-0.5699,-0.1758,80,26.12,15.37,-26.83,300.13,-15.13,-17.67,2,48.847,12.928305,77.686,0,2901.39987219228,0,2903.223,0,0 / 0,217335,2018-08-07 18:45:19:980
2.4017,1.7537,10.5818,2.6725,2.1682,9.183,-0.68,-0.0553,-0.3341,-0.0535,-0.066,0.2023,80,26.77,18.89,-24.11,303.91,-12.2,-15.94,2,52.89,12.928305,77.686,0,2901.39987219228,0,2903.223,0,0 / 0,217834,2018-08-07 18:45:20:479
3.0374,1.8722,8.3815,2.9013,2.1177,9.1252,-0.0602,-0.7536,-2.3812,0.3726,-0.262,-0.0459,80,29.59,12.32,-24.54,292.39,-12.47,-17.64,2,53.86,12.928305,77.686,0,2901.39987219228,0,2903.223,0,0 / 0,218335,2018-08-07 18:45:20:980
2.2054,2.3918,9.0363,2.9363,1.6387,9.2121,-1.0883,0.6605,-2.2851,-0.0641,-0.1257,-0.114,80,29.51,15.89,-24.18,296.79,-9.57,-17.48,2,52.409,12.928305,77.686,0,2901.39987219228,0,2903.223,0,0 / 0,218836,2018-08-07 18:45:21:481
2.4951,0.7852,5.8041,2.7194,1.7421,9.2596,-0.0782,-1.008,-3.1012,0.5239,0.2088,0.0106,80,32.66,14.34,-22.46,292.44,-9.15,-16.7,2,49.066,12.928305,77.686,0,2901.39987219228,0,2903.223,0,0 / 0,219335,2018-08-07 18:45:21:980
0.9879,2.1799,4.5292,2.8568,1.2214,9.3015,-0.2151,0.3984,-3.3416,0.4834,0.5849,-0.1801,80,27.65,17.94,-21.48,299.86,-5.91,-18.32,2,44.379,12.928305,77.686,0,2901.39987219228,0,2903.223,0,0 / 0,219835,2018-08-07 18:45:22:480
2.6962,0.3806,8.2833,3.0791,1.4536,9.1965,-0.0136,-0.6397,-0.0907,0.2235,-0.4026,0.1608,80,28.93,14.1,-23.92,294.3,-8.52,-18.51,2,46.044,12.928305,77.686,0,2901.39987219228,0,2903.223,0,0 / 0,220335,2018-08-07 18:45:22:980
5.0234,1.2509,9.3823,3.6098,1.5067,8.9928,1.0941,0.1532,1.3152,-0.2559,0.0916,0.0394,80,29.99,14.44,-26.28,292.96,-9.42,-22.05,2,48.649,12.928305,77.686,0,2901.39987219228,0,2903.223,0,0 / 0,220835,2018-08-07 18:45:23:480
2.9141,0.8846,10.8894,3.414,1.5665,9.0587,0.2322,-0.9104,5.657,0.4035,0.3761,0.18,80,29.83,14.71,-24.8,294.2,-8.67,-21.57,2,50.666,12.928305,77.686,0,2901.39987219228,0,2903.223,0,0 / 0,221335,2018-08-07 18:45:23:980
4.3075,2.6348,11.1288,3.3226,2.4427,8.8974,-0.1216,-0.3868,-0.3126,-0.7278,-0.1864,-0.3047,80,27.26,17.7,-24.43,301.8,-15.75,-20.39,2,49.878,12.928305,77.686,0,2901.39987219228,0,2903.223,0,0 / 0,221835,2018-08-07 18:45:24:480
2.4113,3.3399,11.1432,3.1455,2.1403,9.0385,-0.8592,0.9614,2.4504,-0.0684,0.343,0.1629,80,23.67,21.93,-25.22,308.39,-12.82,-20.6,2,44.511,12.928305,77.686,0,2901.39987219228,0,2903.223,0,0 / 0,222334,2018-08-07 18:45:24:979
4.1998,2.7664,11.2701,3.1651,3.0862,8.7537,0.2097,-0.0221,-1.2325,-0.1152,-0.2865,-0.2312,80,25.07,15.67,-26.23,302.23,-18.38,-19.36,2,50.401,12.928305,77.686,0,2901.39987219228,0,2903.223,0,0 / 0,222835,2018-08-07 18:45:25:480
2.6567,4.2377,6.9091,2.4968,3.2917,8.8939,-0.8724,-0.022,-1.4624,0.4493,0.3782,0.1267,80,31.24,14.73,-26.58,297.81,-18.66,-16.39,2,52.128,12.928305,77.686,0,2901.39987219228,0,2903.223,0,0 / 0,223335,2018-08-07 18:45:25:980
1.7086,2.9963,6.441,2.4102,2.8624,9.0647,-0.5702,-0.1697,-1.3618,0.4184,0.1854,0.1565,80,31.5,10.78,-23.11,291.95,-16.12,-15.15,2,53.396,12.928305,77.686,0,2901.39987219228,0,2903.223,0,0 / 0,223835,2018-08-07 18:45:26:480
0.4935,2.6156,7.3316,2.4867,2.2653,9.2117,-1.4625,0.3897,-1.7396,-0.2601,0.2674,-0.2323,80,30.63,10.76,-21.63,290.81,-14.43,-16.69,2,51.47,12.928305,77.686,0,2901.39987219228,0,2903.223,0,0 / 0,224335,2018-08-07 18:45:26:980
3.1738,1.8291,7.3448,2.5129,2.145,9.2333,0.1735,-0.8091,-0.1205,-0.0141,0.3313,0.3195,80,32.96,5.67,-21.73,282.88,-12.63,-15.22,2,43.496,12.928305,77.686,0,2901.39987219228,0,2903.223,0,0 / 0,224835,2018-08-07 18:45:27:480
2.4915,2.4253,7.5399,2.7277,2.1621,9.1682,1.0091,-0.3568,-0.0451,-0.2729,0.0789,-0.0629,80,32.05,4.79,-22.04,281.61,-13.33,-16.72,2,43.146,12.928305,77.686,0,2901.39987219228,0,2903.223,0,0 / 0,225334,2018-08-07 18:45:27:979
3.3761,0.4405,15.2433,2.1704,2.2313,9.2995,0.489,-0.5115,1.6316,-0.3145,-0.3451,0.3611,80,35.64,6.51,-20.26,283.33,-13.15,-13.14,2,44.391,12.928305,77.686,0,2901.39987219228,0,2903.223,0,0 / 0,225835,2018-08-07 18:45:28:480
3.6575,2.2972,10.7757,2.5876,2.7862,9.0395,0.5684,-0.1274,-1.1946,0.0477,-0.213,-0.2035,80,31.86,4.17,-21.16,281.03,-16.26,-15.52,2,48.496,12.928305,77.686,0,2901.39987219228,0,2903.223,0,0 / 0,226334,2018-08-07 18:45:28:979
3.0314,3.1256,9.4373,2.5948,3.1668,8.9112,0.1806,0.5847,-2.0622,0.1681,0.212,-0.1108,80,33.1,4.79,-22.63,283.12,-18.84,-16.23,2,44.25,12.928305,77.686,0,2901.39987219228,0,2903.223,0,0 / 0,226835,2018-08-07 18:45:29:480
2.7836,3.7672,7.0288,2.4052,2.9662,9.0326,-0.172,0.3343,-0.8934,0.3929,0.0096,0.1608,80,34.47,2.35,-20.33,277.5,-16.78,-14.75,2,42.872,12.928305,77.686,0,2901.39987219228,0,2903.223,0,0 / 0,227335,2018-08-07 18:45:29:980
1.4524,2.9975,7.4501,2.3093,2.9135,9.0746,-0.7105,0.1843,-1.6252,0.0509,0.3079,0.0106,80,34.56,5.64,-20.86,282.72,-17.1,-15.73,2,46.721,12.928305,77.686,0,2901.39987219228,0,2903.223,0,0 / 0,227835,2018-08-07 18:45:30:480
1.3566,1.4951,10.492,2.0513,2.8477,9.1571,-0.3685,0.001,-0.9021,-0.4444,-0.3472,0.0276,80,36.38,0.82,-19.48,275.89,-16.88,-12.63,2,43.054,12.928305,77.686,0,2901.39987219228,0,2903.223,0,0 / 0,228335,2018-08-07 18:45:30:980
2.7525,2.7593,8.2199,2.2398,2.7268,9.1498,-0.1205,-0.5427,1.7711,0.3002,0.146,0.376,80,35.23,-2.15,-19.53,271.59,-15.79,-13.86,2,47.51,12.928305,77.686,0,2901.39987219228,0,2903.223,0,0 / 0,228834,2018-08-07 18:45:31:479
0.7856,3.5733,9.6851,1.0317,2.5341,9.4172,-0.0679,0.89,0.4581,0.1905,0.6637,0.5187,80,35.97,-8.52,-14.63,260.75,-14.61,-7.44,2,45.83,12.928305,77.686,0,2901.39987219228,0,2903.223,0,0 / 0,229335,2018-08-07 18:45:31:980
1.5147,2.2301,9.5977,0.2771,2.2926,9.5309,0.2523,-0.5998,-0.7859,-0.1089,-0.2066,0.0372,80,36.84,-16.04,-11.81,250.96,-13.81,-1.15,2,49.619,12.928305,77.686,0,2901.39987219228,0,2903.223,0,0 / 0,229835,2018-08-07 18:45:32:480
1.4368,2.0087,8.3264,1.8735,2.0239,9.4109,-0.9174,-0.4296,-1.0477,-0.0758,-0.0096,-0.2983,80,35.18,-3.92,-20.74,268.4,-11.91,-11.26,2,49.621,12.928305,77.686,0,2901.39987219228,0,2903.223,0,0 / 0,230335,2018-08-07 18:45:32:980
2.0857,2.9711,9.6744,1.3541,2.8509,9.2849,-0.0442,0.1279,-0.4593,0.0435,-0.0362,0.132,80,36.42,-4.59,-17.51,268.35,-16.82,-8.12,2,49.617,12.928305,77.686,0,2901.39987219228,0,2903.223,0,0 / 0,230835,2018-08-07 18:45:33:480
1.1256,2.4672,8.6353,1.514,2.5476,9.3482,-0.4252,-0.32,0.3818,-0.1611,-0.0767,-0.0075,80,35.14,-5.42,-20.18,268.25,-15.06,-9.2,2,51.556,12.928305,77.686,0,2901.39987219228,0,2903.223,0,0 / 0,231335,2018-08-07 18:45:33:980
5.1395,1.0702,10.3136,3.6208,0.9723,9.0617,0.6822,0.0749,0.2742,-0.6181,-0.4133,0.1896,120,27.97,-0.78,-25.66,271.28,-7.14,-20.81,2,51.703,12.928305,77.686,0,2901.39987219228,0,2903.223,0,0 / 0,231835,2018-08-07 18:45:34:480
4.1399,0.796,9.1632,3.5172,1.1359,9.0835,0.6068,-0.5265,-0.0258,0.0861,-0.065,-0.2919,80,30.17,1.58,-25.04,275.16,-5.94,-20.48,2,45.501,12.928305,77.686,0,2901.39987219228,0,2903.223,0,0 / 0,232335,2018-08-07 18:45:34:980
2.9272,3.1004,8.421,2.925,1.6275,9.2177,-0.0311,1.4035,-1.0694,-0.0801,0.2205,-0.3495,120,28.2,7.26,-24.93,285.43,-9.55,-17.61,2,45.579,12.928305,77.686,0,2901.39987219228,0,2903.223,0,0 / 0,232834,2018-08-07 18:45:35:479
2.4113,1.8854,7.8033,2.7326,1.5176,9.2952,-0.9021,-0.1916,0.0643,0.084,0.0618,0.0522,120,29.96,6.02,-23.19,282.74,-8.77,-16.58,2,42.639,12.928305,77.686,0,2901.39987219228,0,2903.223,0,0 / 0,233336,2018-08-07 18:45:35:981
2.8793,0.9145,8.6066,3.2494,1.3052,9.1601,-0.5923,-1.0384,-0.2034,-0.0833,-0.2109,-0.1513,120,29.82,7.83,-24.04,284.95,-7.81,-19.16,2,43.611,12.928305,77.686,0,2901.39987219228,0,2903.223,0,0 / 0,233835,2018-08-07 18:45:36:480
2.6914,1.0857,8.8436,3.1915,1.553,9.1418,0.0257,-0.7945,0.7003,0.1362,0.7127,0.6743,120,31.18,4.77,-20.56,280.09,-9.4,-19.7,2,48.843,12.928305,77.686,0,2901.39987219228,0,2903.223,0,0 / 0,234334,2018-08-07 18:45:36:979
3.6599,1.0462,13.201,3.5039,1.5035,9.0351,0.4026,-0.0246,0.3211,-0.4849,-0.3686,-0.1407,120,32.78,6.33,-24.97,280.91,-8.82,-21.2,2,49.432,12.928305,77.686,0,2901.39987219228,0,2903.223,0,0 / 0,234835,2018-08-07 18:45:37:480
3.0242,0.9289,11.2414,2.975,1.1522,9.2732,-0.0163,-0.0992,1.5182,0.1479,-0.0191,-0.0277,120,30.7,13.45,-22.17,291.4,-6.44,-17.79,2,48.743,12.928305,77.686,0,2901.39987219228,0,2903.223,0,0 / 0,235335,2018-08-07 18:45:37:980
3.2002,0.9504,8.7993,3.1927,1.2753,9.1843,-0.3914,-0.1171,-0.9809,0.1979,-0.3345,-0.3026,120,31.41,13.76,-22.76,292.67,-6.83,-18.48,2,50.668,12.928305,77.686,0,2901.39987219228,0,2903.223,0,0 / 0,235835,2018-08-07 18:45:38:480
2.2796,1.8974,8.8484,3.1065,0.7606,9.2705,-0.8606,1.4,-2.8567,-0.1845,-0.1864,-0.374,120,30.47,17.93,-22.08,298.04,-4.42,-18.17,2,50.298,12.928305,77.686,0,2901.39987219228,0,2903.223,0,0 / 0,236335,2018-08-07 18:45:38:980
2.3454,0.8858,8.1086,3.3401,0.9535,9.1709,-1.1372,0.2115,-2.1531,0.1947,0.0735,-0.1748,80,30.01,15.32,-25.67,293.24,-4.46,-20.84,2,52.157,12.928305,77.686,0,2901.39987219228,0,2903.223,0,0 / 0,236835,2018-08-07 18:45:39:480
1.2776,1.8303,6.2518,2.8608,0.7776,9.3478,-1.3851,1.0077,-3.1031,0.199,0.2504,-0.1684,80,29.56,17.69,-24.74,297.66,-3.88,-17.64,2,53.09,12.928305,77.686,0,2901.39987219228,0,2903.223,0,0 / 0,237335,2018-08-07 18:45:39:980
3.697,1.0139,6.3356,3.1033,0.5426,9.2868,0.0784,-1.0713,0.801,0.1159,-0.1587,0.1917,80,29.29,14.1,-23.92,292.83,-3.17,-18.11,2,55.087,12.928305,77.686,0,2901.39987219228,0,2903.223,0,0 / 0,237835,2018-08-07 18:45:40:480
5.1957,2.2373,5.9238,4.0364,1.1076,8.8686,0.4613,-0.4944,0.7187,0.2682,-0.3632,-0.0853,80,22.65,17.8,-27.36,301.37,-6.49,-24.47,2,54.597,12.928305,77.686,0,2901.39987219228,0,2903.223,0,0 / 0,238335,2018-08-07 18:45:40:980
3.2421,0.4584,9.5738,3.5689,1.9277,8.9284,1.5367,-1.6526,0.2608,-0.9099,-0.1523,-0.521,30,24.97,18.68,-27.65,303.52,-14.24,-22.59,2,56.864,12.928305,77.686,0,2901.39987219228,0,2903.223,0,0 / 0,238835,2018-08-07 18:45:41:480
6.5928,0.7972,8.1576,4.436,1.2999,8.6489,-1.2379,-1.0088,5.3887,0.6272,-0.049,0.6018,80,21.02,22.91,-28.44,308.28,-7.62,-27.15,2,56.685,12.928305,77.686,0,2901.39987219228,0,2903.223,0,0 / 0,239335,2018-08-07 18:45:41:980
2.027,0.2525,12.1057,2.9146,1.3265,9.2691,-1.2002,-0.3892,2.5644,-0.8258,0.6562,0.8916,80,29.71,16.48,-23.88,296.53,-10.24,-18.92,2,50.614,12.928305,77.686,0,2901.39987219228,0,2903.223,0,0 / 0,239835,2018-08-07 18:45:42:480
6.2803,0.4979,10.6823,3.7129,0.6877,9.0505,1.7521,-0.7139,5.039,-0.5893,-0.5901,-0.032,80,31.59,14.69,-24.81,291.92,-4.02,-22.31,2,53.809,12.928305,77.686,0,2901.39987219228,0,2903.223,0,0 / 0,240335,2018-08-07 18:45:42:980
4.0274,-0.0695,14.2676,3.3166,0.9396,9.1808,0.0067,0.0138,1.6094,-0.3187,-0.7861,0.1565,80,29.86,15.58,-23.6,295.79,-6.31,-18.13,2,51.35,12.928305,77.686,0,2901.39987219228,0,2903.223,0,0 / 0,240835,2018-08-07 18:45:43:480
4.3159,1.063,8.1517,3.3491,1.843,9.0309,0.1479,-0.7921,0.1085,-0.0513,-0.0255,-0.3463,80,29,17.14,-26.82,298.13,-10.83,-20.35,2,51.44,12.928305,77.686,0,2901.39987219228,0,2903.223,0,0 / 0,241335,2018-08-07 18:45:43:980
2.8494,1.5897,10.073,3.0894,1.5889,9.1707,-0.2448,0.2156,1.3225,0.2182,-0.0756,0.2556,80,27.54,20.65,-22.9,303.96,-9.04,-18.4,2,48.665,12.928305,77.686,0,2901.39987219228,0,2903.223,0,0 / 0,241835,2018-08-07 18:45:44:480
4.4559,1.0833,9.4936,3.8073,1.8102,8.8543,0.0886,-0.639,-0.4396,-0.0599,-0.3835,-0.2099,80,28.43,16.27,-27.71,297,-10.25,-21.72,2,47.813,12.928305,77.686,0,2901.39987219228,0,2903.223,0,0 / 0,242335,2018-08-07 18:45:44:980
2.6902,2.8682,8.099,3.5698,0.64,9.1114,-1.2896,1.6757,-1.4238,0.264,-0.1694,-0.0799,80,27.58,22.16,-23.47,303.36,-3.74,-21.39,2,50.156,12.928305,77.686,0,2901.39987219228,0,2903.223,0,0 / 0,242835,2018-08-07 18:45:45:480
3.0326,0.5303,6.9306,3.9476,1.0178,8.9192,-0.8192,-0.4589,-2.4989,0.2128,-0.4421,-0.2525,80,28,18.91,-25.6,299.27,-5.31,-22.88,2,54.069,12.928305,77.686,0,2901.39987219228,0,2903.223,0,0 / 0,243335,2018-08-07 18:45:45:980
2.3634,1.5155,6.7738,4.0819,0.6029,8.8963,-0.5769,0.9139,-2.1684,0.0222,0.5305,-0.2493,80,26.22,24.26,-23.42,306.22,-3.14,-25.84,2,55.535,12.928305,77.686,0,2901.39987219228,0,2903.223,0,0 / 0,243835,2018-08-07 18:45:46:480
4.1243,0.2382,8.5335,4.3998,0.781,8.7294,0.201,-0.4402,-0.8935,-0.4199,-0.4708,-0.1385,80,22.65,23.13,-25.19,307.32,-5.32,-25.69,2,56.443,12.928305,77.686,0,2901.39987219228,0,2903.223,0,0 / 0,244335,2018-08-07 18:45:46:980
5.5788,1.6005,8.0643,4.5083,0.548,8.6917,0.3037,0.4351,0.62,0.2555,-0.0245,0.262,80,21.3,25.85,-26.32,311.1,-3.2,-27.42,2,53.184,12.928305,77.686,0,2901.39987219228,0,2903.223,0,0 / 0,244835,2018-08-07 18:45:47:480
4.6307,0.0311,9.7151,3.6585,0.844,9.0594,0.5626,-1.1048,1.492,0.59,1.1058,0.6934,80,23.95,25.49,-24.27,309.15,-4.45,-24.33,2,47.651,12.928305,77.686,0,2901.39987219228,0,2903.223,0,0 / 0,245336,2018-08-07 18:45:47:981
4.8294,1.6519,11.4592,3.8924,1.3492,8.8994,0.792,0.1424,6.5038,-0.9355,-0.9864,-0.2887,80,23.19,23.74,-26.07,309.31,-7.91,-23.62,2,50.034,12.928305,77.686,0,2901.39987219228,0,2903.223,0,0 / 0,245835,2018-08-07 18:45:48:480
5.1922,-0.3568,14.2186,3.8041,0.4397,9.0281,-0.3468,0.4246,2.0754,-0.4434,-0.6232,0.3771,80,21.39,28.79,-24.49,316.53,-3.78,-21.53,2,49.375,12.928305,77.686,0,2901.39987219228,0,2903.223,0,0 / 0,246335,2018-08-07 18:45:48:980
4.7624,0.2609,6.7714,4.0058,1.1802,8.8731,0.4007,-1.2771,-1.5666,-0.9494,-0.3888,-0.2291,80,19.33,24.96,-26.03,314.49,-8.78,-23.18,2,49.114,12.928305,77.686,0,2901.39987219228,0,2903.223,0,0 / 0,246836,2018-08-07 18:45:49:481
4.5744,0.2849,12.4397,3.727,0.9091,9.0252,-1.2925,0.6515,0.1821,-0.2197,-0.2588,0.3259,80,21.17,27.32,-25.4,314.33,-5.32,-22.44,2,50.457,12.928305,77.686,0,2901.39987219228,0,2903.223,0,0 / 0,247335,2018-08-07 18:45:49:980
4.5804,0.5506,8.9824,3.7616,1.5894,8.916,-0.1143,-0.9684,-1.3351,0.2981,-0.0447,-0.3388,80,23.52,23.14,-26.08,307.73,-8.49,-22.8,2,50.032,12.928305,77.686,0,2901.39987219228,0,2903.223,0,0 / 0,247838,2018-08-07 18:45:50:483
3.5581,1.5526,8.5886,4.1346,1.1523,8.8175,-1.7779,0.6959,0.0077,0.2054,-1.1441,-0.4081,80,16.42,28.57,-26.24,321.02,-5.87,-22.78,2,46.648,12.928305,77.686,0,2901.39987219228,0,2903.223,0,0 / 0,248335,2018-08-07 18:45:50:980
4.2644,1.2377,4.2287,4.9483,1.8614,8.2595,-1.2525,-1.137,-2.1103,0.8669,-0.2343,-0.2333,80,18.35,22.67,-30.49,309.44,-6.46,-28.7,2,50.904,12.928305,77.686,0,2901.39987219228,0,2903.223,0,0 / 0,248835,2018-08-07 18:45:51:480
2.0354,1.8159,6.01,4.5167,0.8131,8.6665,-0.9043,1.098,-3.2423,-0.0417,0.2972,-0.2749,80,14.34,30.09,-26.79,321.54,-4.76,-27.53,2,53.033,12.928305,77.686,0,2901.39987219228,0,2903.223,0,0 / 0,249336,2018-08-07 18:45:51:981
3.8993,0.9816,4.7483,4.4765,1.001,8.6677,0.4058,-0.4352,-1.4582,0.5282,0.2717,-0.0096,80,19.9,26.75,-26.29,313.26,-4.82,-27.78,2,52.7,12.928305,77.686,0,2901.39987219228,0,2903.223,0,0 / 0,249836,2018-08-07 18:45:52:481
4.1626,2.0949,4.4514,4.9919,0.5045,8.426,0.2795,1.5362,-2.3104,0.5175,0.3942,-0.1268,80,13.17,31.85,-24.68,323.44,-0.69,-30.42,2,52.835,12.928305,77.686,0,2901.39987219228,0,2903.223,0,0 / 0,250334,2018-08-07 18:45:52:979
4.7899,0.4632,7.249,4.3442,0.9316,8.7425,2.34,-0.5138,0.0188,0.5378,-0.0096,0.2908,80,19.77,27.93,-25.38,315.12,-5.45,-26.42,2,52.272,12.928305,77.686,0,2901.39987219228,0,2903.223,0,0 / 0,250835,2018-08-07 18:45:53:480
6.6957,1.1552,9.5882,4.9521,0.1739,8.4627,0.3043,0.4167,2.5721,-0.2857,0.0011,0.0798,80,12.52,33.63,-24.06,325.72,-1.02,-30.33,2,53.252,12.928305,77.686,0,2901.39987219228,0,2903.223,0,0 / 0,251335,2018-08-07 18:45:53:980
5.7668,-0.9398,12.2074,4.7628,0.2948,8.5674,2.2616,-0.5922,7.3741,0.7987,0.3601,0.6775,80,14.61,32.08,-22.33,323.31,-1,-29.99,2,49.391,12.928305,77.686,0,2901.39987219228,0,2903.223,0,0 / 0,251839,2018-08-07 18:45:54:484
5.106,0.3339,11.8603,5.276,0.4103,8.2563,-0.2928,-0.9983,-2.1948,-1.1294,-0.8245,-0.1897,80,14.03,31.28,-26.77,322.7,-8.15,-28.6,2,47.141,12.928305,77.686,0,2901.39987219228,0,2903.223,0,0 / 0,252336,2018-08-07 18:45:54:981
5.7129,-0.0204,12.2529,4.5597,0.7596,8.6489,-0.4814,-0.3227,1.3638,-0.0045,0.3313,0.5699,80,14.25,32.76,-25.86,324.35,-4.44,-27.8,2,46.187,12.928305,77.686,0,2901.39987219228,0,2903.223,0,0 / 0,252836,2018-08-07 18:45:55:481
4.8857,0.7697,5.4989,4.5386,2.3943,8.3569,-0.164,-1.4327,-1.6233,-0.2378,-0.213,-0.342,80,16.09,23.88,-30.16,314.64,-14.34,-28.2,2,51.532,12.928305,77.686,0,2901.39987219228,0,2903.223,0,0 / 0,253339,2018-08-07 18:45:55:984
2.6244,1.385,8.67,4.4168,1.5903,8.61,-2.8301,0.062,-0.8795,0.2448,-0.0437,0.0031,80,13.08,29.2,-26.5,322.73,-8.8,-27.23,2,52.423,12.928305,77.686,0,2901.39987219228,0,2903.223,0,0 / 0,253835,2018-08-07 18:45:56:480
3.9615,0.5195,7.3676,4.3574,1.4637,8.6626,-0.1473,-0.5812,-3.7363,0.4792,0.3654,-0.2227,80,17.47,28.27,-26.84,317.34,-7.4,-27.37,2,49.809,12.928305,77.686,0,2901.39987219228,0,2903.223,0,0 / 0,254335,2018-08-07 18:45:56:980
2.3,1.1049,8.16,3.8511,1.1364,8.947,-1.9879,-0.1839,-1.8463,0.4184,0.4016,-0.113,80,15.27,30.6,-22.95,324.91,-6.65,-23.29,2,51.15,12.928305,77.686,0,2901.39987219228,0,2903.223,0,0 / 0,254834,2018-08-07 18:45:57:479
3.4444,1.3239,5.8089,4.211,1.155,8.7809,-0.8474,0.0421,-2.7254,0.4376,0.0842,0.0021,80,22.92,27.68,-28.95,311.53,-5.84,-25.72,2,45.635,12.928305,77.686,0,2901.39987219228,0,2903.223,0,0 / 0,255334,2018-08-07 18:45:57:979
2.537,1.792,6.3596,4.5233,0.6316,8.6782,-0.6419,1.4537,-3.0067,-0.0652,0.6658,-0.1002,80,17.46,27.98,-26.85,315.96,-3.55,-28.97,2,45.886,12.928305,77.686,0,2901.39987219228,0,2903.223,0,0 / 0,255835,2018-08-07 18:45:58:480
3.9962,-0.4538,8.2666,4.8773,0.6084,8.486,-0.5319,-1.0991,-0.8849,-0.2686,0.2376,0.1768,80,20.19,24.69,-27.51,309.6,-4.38,-30.42,2,45.74,12.928305,77.686,0,2901.39987219228,0,2903.223,0,0 / 0,256335,2018-08-07 18:45:58:980
6.0086,0.2908,10.395,4.8404,-0.5848,8.5088,0.4715,-0.2218,2.0129,0.2608,-0.3291,0.1171,80,18.81,31.19,-24.14,316.84,3.05,-30.05,2,42.931,12.928305,77.686,0,2901.39987219228,0,2903.223,0,0 / 0,256835,2018-08-07 18:45:59:480
5.2688,-0.1377,9.1141,4.5355,0.8435,8.6538,2.0276,-1.3729,7.3937,1.1034,0.4091,0.7414,80,21.32,21.45,-30.24,304.52,-4.93,-27.66,2,48.304,12.928305,77.686,0,2901.39987219228,0,2903.223,0,0 / 0,257335,2018-08-07 18:45:59:980
4.9575,1.8411,9.97,4.5422,2.3876,8.3569,1.5161,0.4901,3.0442,-0.3922,-0.2684,-0.114,80,23.1,16.43,-33.59,299.28,-14.78,-28.1,2,47.25,12.928305,77.686,0,2901.39987219228,0,2903.223,0,0 / 0,257834,2018-08-07 18:46:00:479
1.5661,2.9759,7.5052,2.1387,3.2827,8.99,0.1847,-0.0813,-0.629,0.2405,0.669,0.4953,30,31.11,9.93,-24.89,292.32,-19.29,-14.43,2,46.589,12.928305,77.686,0,2901.39987219228,0,2903.223,0,0 / 0,258335,2018-08-07 18:46:00:980
2.9165,3.2345,9.2075,2.5911,3.2098,8.8968,0.294,-0.1926,-0.5946,0.2523,0.1577,-0.0768,30,33.68,6.91,-24.08,285.06,-17.4,-16.75,2,47.815,12.928305,77.686,0,2901.39987219228,0,2903.223,0,0 / 0,258837,2018-08-07 18:46:01:482
1.8606,3.3602,8.7873,2.046,3.0944,9.0779,-0.4274,0.2632,-1.3924,0.0499,0.5465,0.0244,30,35.55,9.85,-22.85,289.3,-18.39,-12.7,2,47.209,12.928305,77.686,0,2901.39987219228,0,2903.223,0,0 / 0,259335,2018-08-07 18:46:01:980
1.7517,1.6855,8.8112,1.3597,1.6005,9.5791,0.6388,-0.5621,0.5079,-0.1461,0.1705,-0.032,30,36.86,5.59,-19.39,281.74,-9.77,-8.43,2,50.363,12.928305,77.686,0,2901.39987219228,0,2903.223,0,0 / 0,259835,2018-08-07 18:46:02:480
1.5446,1.3515,8.5742,1.5882,1.5781,9.5477,0.578,-0.6899,-0.0792,-0.144,0.4474,-0.2791,30,36.73,7.4,-20.25,282.89,-9.26,-9.44,2,48.544,12.928305,77.686,0,2901.39987219228,0,2903.223,0,0 / 0,260335,2018-08-07 18:46:02:980
0.9628,1.5813,8.7658,1.5841,1.9761,9.474,0.2873,-0.8075,3.0364,0.3492,-0.0266,0.3845,30,35.05,4.14,-20.59,280.22,-11.13,-9.26,2,51.153,12.928305,77.686,0,2901.39987219228,0,2903.223,0,0 / 0,260835,2018-08-07 18:46:03:480
2.549,1.3718,9.1381,1.5332,2.0922,9.4574,0.3692,-0.0519,0.0623,0.0531,-0.0426,-0.1971,30,37.02,5.3,-19.7,281.03,-11.84,-9.15,2,51.427,12.928305,77.686,0,2901.39987219228,0,2903.223,0,0 / 0,261338,2018-08-07 18:46:03:983
2.039,1.6124,8.7885,2.3773,1.5777,9.3824,-0.5823,0.3361,-1.4997,-0.0141,-0.2045,0.1043,80,35.48,7.14,-21.72,282.94,-9.29,-13.74,2,51.257,12.928305,77.686,0,2901.39987219228,0,2903.223,0,0 / 0,261835,2018-08-07 18:46:04:480
1.9085,0.2011,10.9421,2.2909,0.8308,9.4991,-0.8693,-0.8656,1.2383,0.1905,-0.1992,0.2652,80,36.4,3.01,-24.16,275.95,-4.67,-13.17,2,51.907,12.928305,77.686,0,2901.39987219228,0,2903.223,0,0 / 0,262335,2018-08-07 18:46:04:980
2.2389,2.0398,8.2522,2.3865,2.3437,9.2186,0.3219,-0.0756,-0.5363,0.1447,0.1747,0.0649,80,35.34,-3.24,-24.57,271.11,-13.83,-14.51,2,49.794,12.928305,77.686,0,2901.39987219228,0,2903.223,0,0 / 0,262835,2018-08-07 18:46:05:480
2.9727,1.9632,10.0838,2.5514,2.1503,9.2215,0.4104,-0.0174,0.1517,-0.079,0.4592,0.2066,80,35.76,-7.44,-23.76,264.56,-12.97,-16.37,2,47.754,12.928305,77.686,0,2901.39987219228,0,2903.223,0,0 / 0,263334,2018-08-07 18:46:05:979
0.9257,1.4161,11.6975,0.9679,2.1102,9.5279,-0.3367,-0.2498,-0.2003,-0.1355,-0.2642,0.3334,80,36.54,-13.61,-14.13,253.5,-12.82,-5.07,2,44.552,12.928305,77.686,0,2901.39987219228,0,2903.223,0,0 / 0,263835,2018-08-07 18:46:06:480
0.7928,3.1591,8.9525,1.3493,2.9975,9.2393,-0.2215,0.2778,-0.4756,0.1532,-0.2599,-0.212,80,36.79,-17.82,-12.44,248.42,-17.35,-7.87,2,52.151,12.928305,77.686,0,2901.39987219228,0,2903.223,0,0 / 0,264336,2018-08-07 18:46:06:981
2.3311,1.5634,10.055,2.173,2.234,9.2983,0.5593,-0.3097,-0.3181,-0.275,-0.1054,0,80,35.4,-15.63,-17.12,250.25,-13.17,-13.15,2,53.262,12.928305,77.686,0,2901.39987219228,0,2903.223,0,0 / 0,264835,2018-08-07 18:46:07:480
1.45,1.2916,9.648,0.7451,1.4211,9.6745,0.8169,0.0377,-0.0894,0.0403,0.2014,0.6806,80,34.56,-21.69,-11.9,240.31,-8.36,-4.55,2,55.386,12.928305,77.686,0,2901.39987219228,0,2903.223,0,0 / 0,265335,2018-08-07 18:46:07:980
1.3602,0.4632,8.6975,0.708,0.7814,9.7498,0.5951,0.6038,-1.2452,-0.6841,-0.0373,0.0884,80,28.05,-27.95,-9.62,226.68,-6.05,-3.99,2,56.754,12.928305,77.686,0,2901.39987219228,0,2903.223,0,0 / 0,265835,2018-08-07 18:46:08:480
2.5717,-0.3376,9.6947,0.9652,0.2995,9.7544,1.6012,-0.6145,-0.1274,0.1138,0.0618,-0.3228,80,28.74,-27.61,-11.98,227.26,-1.48,-5.65,2,50.906,12.928305,77.686,0,2901.39987219228,0,2903.223,0,0 / 0,266335,2018-08-07 18:46:08:980
1.9612,0.4716,8.4342,2.0206,0.9254,9.5515,-0.1061,-0.8274,-0.4595,-0.1067,-0.1022,-1.4584,80,38.42,-8.47,-18.18,260.03,-4.61,-12.05,2,52.371,12.928305,77.686,0,2901.39987219228,0,2903.223,0,0 / 0,266835,2018-08-07 18:46:09:480
-0.3325,1.233,10.5147,2.2866,0.9672,9.4872,-2.2304,0.4709,-0.1649,-0.3496,-0.2631,-0.6147,80,35.93,10.72,-21.66,286.93,-5.66,-13.55,2,48.64,12.928305,77.686,0,2901.39987219228,0,2903.223,0,0 / 0,267335,2018-08-07 18:46:09:980
2.7345,0.14,12.5007,3.0937,0.444,9.2953,0.4307,0.7873,-0.0544,-0.4561,-0.7446,-0.6147,80,32.66,19.99,-21.47,298.61,-3.08,-16.77,2,47.618,12.928305,77.686,0,2901.39987219228,0,2903.223,0,0 / 0,267835,2018-08-07 18:46:10:480
2.3802,1.5131,12.2721,2.3061,0.9001,9.4891,-0.2522,0.8258,2.006,0.3364,0.1758,0.2482,80,26.13,26.6,-21.31,312.76,-4.6,-14.07,2,46.876,12.928305,77.686,0,2901.39987219228,0,2903.223,0,0 / 0,268335,2018-08-07 18:46:10:980
